timestamp_iso,ts_epoch,dt_s,mpu_num,ok,ax,ay,az,ax_g,ay_g,az_g,gx,gy,gz,gx_dps,gy_dps,gz_dps,roll_acc,pitch_acc
2025-08-25T16:44:29.351393+03:00,1756129469.351377,0.000002,1,True,17170,-150,-2686,1.0479736328125,-0.0091552734375,-0.1639404296875,20,16,-20,1.2195121951219514,0.9756097560975611,-1.2195121951219514,-176.80362739305184,-81.09532523077156
2025-08-25T16:44:29.351393+03:00,1756129469.351377,0.000002,2,True,17488,-290,-3870,1.0673828125,-0.0177001953125,-0.2362060546875,-70,8,2,-4.2682926829268295,0.48780487804878053,0.12195121951219513,-175.714524463185,-77.48796351157365
2025-08-25T16:44:29.414397+03:00,1756129469.414389,0.063011,1,True,17180,-182,-2694,1.048583984375,-0.0111083984375,-0.1644287109375,20,16,-20,1.2195121951219514,0.9756097560975611,-1.2195121951219514,-176.13510821998094,-81.06802065970491
2025-08-25T16:44:29.414397+03:00,1756129469.414389,0.063011,2,True,17464,-286,-3866,1.06591796875,-0.0174560546875,-0.2359619140625,-70,8,1,-4.2682926829268295,0.48780487804878053,0.06097560975609757,-175.76906153234333,-77.4847116786399
2025-08-25T16:44:29.477132+03:00,1756129469.477124,0.062736,1,True,17154,-152,-2690,1.0469970703125,-0.00927734375,-0.1641845703125,20,16,-20,1.2195121951219514,0.9756097560975611,-1.2195121951219514,-176.7659052442006,-81.07376859080836
2025-08-25T16:44:29.477132+03:00,1756129469.477124,0.062736,2,True,17488,-280,-3878,1.0673828125,-0.01708984375,-0.2366943359375,-70,9,2,-4.2682926829268295,0.5487804878048781,0.12195121951219513,-175.87028413598054,-77.46534365533115
2025-08-25T16:44:29.539794+03:00,1756129469.539785,0.062660,1,True,17174,-174,-2672,1.0482177734375,-0.0106201171875,-0.1630859375,20,16,-20,1.2195121951219514,0.9756097560975611,-1.2195121951219514,-176.2741703696887,-81.13815788454318
2025-08-25T16:44:29.539794+03:00,1756129469.539785,0.062660,2,True,17494,-284,-3868,1.0677490234375,-0.017333984375,-0.236083984375,-70,9,2,-4.2682926829268295,0.5487804878048781,0.12195121951219513,-175.80070681880161,-77.4997314884812
2025-08-25T16:44:29.602363+03:00,1756129469.602356,0.062571,1,True,17406,-182,-2678,1.0623779296875,-0.0111083984375,-0.1634521484375,20,16,-20,1.2195121951219514,0.9756097560975611,-1.2195121951219514,-176.11208763259307,-81.23347888519235
2025-08-25T16:44:29.602363+03:00,1756129469.602356,0.062571,2,True,17490,-288,-3876,1.0675048828125,-0.017578125,-0.236572265625,-70,9,2,-4.2682926829268295,0.5487804878048781,0.12195121951219513,-175.75053459798073,-77.4711339402219
2025-08-25T16:44:29.664921+03:00,1756129469.664915,0.062559,1,True,17156,-178,-2702,1.047119140625,-0.0108642578125,-0.1649169921875,20,16,-21,1.2195121951219514,0.9756097560975611,-1.2804878048780488,-176.23096177373856,-81.03058296792888
2025-08-25T16:44:29.664921+03:00,1756129469.664915,0.062559,2,True,17458,-276,-3876,1.0655517578125,-0.016845703125,-0.236572265625,-70,8,1,-4.2682926829268295,0.48780487804878053,0.06097560975609757,-175.92698674832374,-77.4516187703546
2025-08-25T16:44:29.727476+03:00,1756129469.727469,0.062554,1,True,17178,-170,-2688,1.0484619140625,-0.0103759765625,-0.1640625,20,16,-20,1.2195121951219514,0.9756097560975611,-1.2195121951219514,-176.38119987910983,-81.08903629995923
2025-08-25T16:44:29.727476+03:00,1756129469.727469,0.062554,2,True,17492,-290,-3856,1.067626953125,-0.0177001953125,-0.2353515625,-70,8,2,-4.2682926829268295,0.48780487804878053,0.12195121951219513,-175.69902345394783,-77.5343255541903
2025-08-25T16:44:29.790233+03:00,1756129469.790222,0.062753,1,True,17158,-168,-2664,1.0472412109375,-0.01025390625,-0.16259765625,20,16,-20,1.2195121951219514,0.9756097560975611,-1.2195121951219514,-176.39152833640657,-81.15730442875423
2025-08-25T16:44:29.790233+03:00,1756129469.790222,0.062753,2,True,17474,-268,-3864,1.0665283203125,-0.016357421875,-0.23583984375,-70,9,1,-4.2682926829268295,0.5487804878048781,0.06097560975609757,-176.03242026143195,-77.50190424920986
2025-08-25T16:44:29.852841+03:00,1756129469.852835,0.062612,1,True,17176,-164,-2680,1.04833984375,-0.010009765625,-0.16357421875,20,16,-20,1.2195121951219514,0.9756097560975611,-1.2195121951219514,-176.49820425457824,-81.11522616830527
2025-08-25T16:44:29.852841+03:00,1756129469.852835,0.062612,2,True,17508,-298,-3866,1.068603515625,-0.0181884765625,-0.2359619140625,-71,9,2,-4.329268292682928,0.5487804878048781,0.12195121951219513,-175.59222534160654,-77.51235750488809
2025-08-25T16:44:29.915502+03:00,1756129469.915494,0.062660,1,True,17150,-170,-2684,1.0467529296875,-0.0103759765625,-0.163818359375,20,16,-21,1.2195121951219514,0.9756097560975611,-1.2804878048780488,-176.37582110194913,-81.08773802581617
2025-08-25T16:44:29.915502+03:00,1756129469.915494,0.062660,2,True,17476,-272,-3862,1.066650390625,-0.0166015625,-0.2357177734375,-70,9,1,-4.2682926829268295,0.5487804878048781,0.06097560975609757,-175.9713176824456,-77.50865304066946
2025-08-25T16:44:29.978171+03:00,1756129469.978163,0.062669,1,True,17170,-172,-2678,1.0479736328125,-0.010498046875,-0.1634521484375,20,16,-21,1.2195121951219514,0.9756097560975611,-1.2804878048780488,-176.3251067131687,-81.11704196497097
2025-08-25T16:44:29.978171+03:00,1756129469.978163,0.062669,2,True,17458,-276,-3866,1.0655517578125,-0.016845703125,-0.2359619140625,-71,9,1,-4.329268292682928,0.5487804878048781,0.06097560975609757,-175.9164868790496,-77.48281339237168
2025-08-25T16:44:30.040772+03:00,1756129470.040765,0.062601,1,True,17170,-162,-2686,1.0479736328125,-0.0098876953125,-0.1639404296875,20,16,-21,1.2195121951219514,0.9756097560975611,-1.2804878048780488,-176.54851316962282,-81.0930591015774
2025-08-25T16:44:30.040772+03:00,1756129470.040765,0.062601,2,True,17486,-280,-3864,1.0672607421875,-0.01708984375,-0.23583984375,-70,9,1,-4.2682926829268295,0.5487804878048781,0.06097560975609757,-175.85537345641293,-77.50756087982955
2025-08-25T16:44:30.103464+03:00,1756129470.103455,0.062691,1,True,17174,-168,-2688,1.0482177734375,-0.01025390625,-0.1640625,20,16,-21,1.2195121951219514,0.9756097560975611,-1.2804878048780488,-176.42366281346347,-81.08740279327947
2025-08-25T16:44:30.103464+03:00,1756129470.103455,0.062691,2,True,17484,-288,-3862,1.067138671875,-0.017578125,-0.2357177734375,-70,8,2,-4.2682926829268295,0.48780487804878053,0.12195121951219513,-175.7351867562115,-77.51057511343812
2025-08-25T16:44:30.166098+03:00,1756129470.166089,0.062634,1,True,17182,-178,-2684,1.0487060546875,-0.0108642578125,-0.163818359375,20,17,-21,1.2195121951219514,1.0365853658536586,-1.2804878048780488,-176.20575867202888,-81.10238609664121
2025-08-25T16:44:30.166098+03:00,1756129470.166089,0.062634,2,True,17474,-248,-3858,1.0665283203125,-0.01513671875,-0.2354736328125,-70,9,1,-4.2682926829268295,0.5487804878048781,0.06097560975609757,-176.32196975440948,-77.52478418274633
2025-08-25T16:44:30.228708+03:00,1756129470.228700,0.062610,1,True,17172,-168,-2690,1.048095703125,-0.01025390625,-0.1641845703125,20,16,-21,1.2195121951219514,0.9756097560975611,-1.2804878048780488,-176.42631490467613,-81.07988125811357
2025-08-25T16:44:30.228708+03:00,1756129470.228700,0.062610,2,True,17482,-292,-3844,1.0670166015625,-0.017822265625,-0.234619140625,-70,9,1,-4.2682926829268295,0.5487804878048781,0.06097560975609757,-175.65600688191998,-77.56434020130153
2025-08-25T16:44:30.291303+03:00,1756129470.291295,0.062595,1,True,17188,-162,-2668,1.049072265625,-0.0098876953125,-0.162841796875,20,16,-20,1.2195121951219514,0.9756097560975611,-1.2195121951219514,-176.52528415786392,-81.16070697153688
2025-08-25T16:44:30.291303+03:00,1756129470.291295,0.062595,2,True,17456,-278,-3862,1.0654296875,-0.0169677734375,-0.2357177734375,-70,9,2,-4.2682926829268295,0.5487804878048781,0.12195121951219513,-175.88275208731545,-77.49345798658024
2025-08-25T16:44:30.353899+03:00,1756129470.353893,0.062598,1,True,17172,-184,-2672,1.048095703125,-0.01123046875,-0.1630859375,20,16,-20,1.2195121951219514,0.9756097560975611,-1.2195121951219514,-176.06069832436407,-81.13496488772492
2025-08-25T16:44:30.353899+03:00,1756129470.353893,0.062598,2,True,17496,-294,-3862,1.06787109375,-0.0179443359375,-0.2357177734375,-70,9,2,-4.2682926829268295,0.5487804878048781,0.12195121951219513,-175.6466746320106,-77.51746535187488
2025-08-25T16:44:30.416505+03:00,1756129470.416499,0.062606,1,True,17160,-166,-2678,1.04736328125,-0.0101318359375,-0.1634521484375,20,16,-21,1.2195121951219514,0.9756097560975611,-1.2804878048780488,-176.4529673891664,-81.11317966327385
2025-08-25T16:44:30.416505+03:00,1756129470.416499,0.062606,2,True,17474,-290,-3852,1.0665283203125,-0.0177001953125,-0.235107421875,-71,9,1,-4.329268292682928,0.5487804878048781,0.06097560975609757,-175.69457401497925,-77.53435535400628
2025-08-25T16:44:30.479075+03:00,1756129470.479068,0.062569,1,True,17168,-182,-2670,1.0478515625,-0.0111083984375,-0.1629638671875,20,16,-20,1.2195121951219514,0.9756097560975611,-1.2195121951219514,-176.1004743522089,-81.13987864506664
2025-08-25T16:44:30.479075+03:00,1756129470.479068,0.062569,2,True,17500,-300,-3852,1.068115234375,-0.018310546875,-0.235107421875,-70,8,1,-4.2682926829268295,0.48780487804878053,0.06097560975609757,-175.54669845804244,-77.54991416308972
2025-08-25T16:44:30.541624+03:00,1756129470.541618,0.062550,1,True,17154,-178,-2714,1.0469970703125,-0.0108642578125,-0.1656494140625,20,16,-21,1.2195121951219514,0.9756097560975611,-1.2804878048780488,-176.2475789145351,-80.99053611091632
2025-08-25T16:44:30.541624+03:00,1756129470.541618,0.062550,2,True,17482,-274,-3870,1.0670166015625,-0.0167236328125,-0.2362060546875,-70,9,1,-4.2682926829268295,0.5487804878048781,0.06097560975609757,-175.95015476227448,-77.48743661189545
2025-08-25T16:44:30.604211+03:00,1756129470.604204,0.062586,1,True,17156,-170,-2692,1.047119140625,-0.0103759765625,-0.164306640625,20,16,-21,1.2195121951219514,0.9756097560975611,-1.2804878048780488,-176.38656273537765,-81.06478202680266
2025-08-25T16:44:30.604211+03:00,1756129470.604204,0.062586,2,True,17482,-284,-3878,1.0670166015625,-0.017333984375,-0.2366943359375,-70,9,2,-4.2682926829268295,0.5487804878048781,0.12195121951219513,-175.81149672655826,-77.46027167969642
2025-08-25T16:44:30.666791+03:00,1756129470.666784,0.062580,1,True,17166,-174,-2670,1.0477294921875,-0.0106201171875,-0.1629638671875,20,16,-20,1.2195121951219514,0.9756097560975611,-1.2195121951219514,-176.2713873581165,-81.14059678858011
2025-08-25T16:44:30.666791+03:00,1756129470.666784,0.062580,2,True,17466,-282,-3858,1.0660400390625,-0.0172119140625,-0.2354736328125,-70,8,2,-4.2682926829268295,0.48780487804878053,0.12195121951219513,-175.81940463012597,-77.51196327283763
2025-08-25T16:44:30.729341+03:00,1756129470.729335,0.062551,1,True,17170,-170,-2682,1.0479736328125,-0.0103759765625,-0.1636962890625,21,16,-20,1.2804878048780488,0.9756097560975611,-1.2195121951219514,-176.37312572089172,-81.10445407278115
2025-08-25T16:44:30.729341+03:00,1756129470.729335,0.062551,2,True,17494,-284,-3864,1.0677490234375,-0.017333984375,-0.23583984375,-70,9,2,-4.2682926829268295,0.5487804878048781,0.12195121951219513,-175.79637530204374,-77.51218545966783
2025-08-25T16:44:30.791943+03:00,1756129470.791935,0.062601,1,True,17178,-178,-2668,1.0484619140625,-0.0108642578125,-0.162841796875,20,16,-20,1.2195121951219514,0.9756097560975611,-1.2195121951219514,-176.18307167988795,-81.15232931950753
2025-08-25T16:44:30.791943+03:00,1756129470.791935,0.062601,2,True,17492,-286,-3866,1.067626953125,-0.0174560546875,-0.2359619140625,-70,9,1,-4.2682926829268295,0.5487804878048781,0.06097560975609757,-175.76906153234333,-77.5041155649588
2025-08-25T16:44:30.854525+03:00,1756129470.854517,0.062582,1,True,17170,-164,-2682,1.0479736328125,-0.010009765625,-0.1636962890625,20,16,-20,1.2195121951219514,0.9756097560975611,-1.2195121951219514,-176.5008090933076,-81.10566861142802
2025-08-25T16:44:30.854525+03:00,1756129470.854517,0.062582,2,True,17490,-288,-3898,1.0675048828125,-0.017578125,-0.2379150390625,-70,9,1,-4.2682926829268295,0.5487804878048781,0.06097560975609757,-175.77443110811345,-77.4026613122792
2025-08-25T16:44:30.917134+03:00,1756129470.917127,0.062610,1,True,17152,-174,-2690,1.046875,-0.0106201171875,-0.1641845703125,20,16,-20,1.2195121951219514,0.9756097560975611,-1.2195121951219514,-176.29903202959804,-81.0684066601215
2025-08-25T16:44:30.917134+03:00,1756129470.917127,0.062610,2,True,17456,-282,-3872,1.0654296875,-0.0172119140625,-0.236328125,-70,9,2,-4.2682926829268295,0.5487804878048781,0.12195121951219513,-175.83446710498578,-77.46135620472785
2025-08-25T16:44:30.979758+03:00,1756129470.979750,0.062623,1,True,17166,-184,-2690,1.0477294921875,-0.01123046875,-0.1641845703125,20,16,-20,1.2195121951219514,0.9756097560975611,-1.2195121951219514,-176.08697578187702,-81.07341088664501
2025-08-25T16:44:30.979758+03:00,1756129470.979750,0.062623,2,True,17488,-290,-3870,1.0673828125,-0.0177001953125,-0.2362060546875,-70,9,2,-4.2682926829268295,0.5487804878048781,0.12195121951219513,-175.714524463185,-77.48796351157365
2025-08-25T16:44:31.042363+03:00,1756129471.042355,0.062605,1,True,17172,-178,-2682,1.048095703125,-0.0108642578125,-0.1636962890625,20,16,-21,1.2195121951219514,0.9756097560975611,-1.2804878048780488,-176.20293753621561,-81.10378677565838
2025-08-25T16:44:31.042363+03:00,1756129471.042355,0.062605,2,True,17468,-292,-3872,1.066162109375,-0.017822265625,-0.236328125,-70,9,1,-4.2682926829268295,0.5487804878048781,0.06097560975609757,-175.6873010885467,-77.46738732966277
2025-08-25T16:44:31.105044+03:00,1756129471.105035,0.062680,1,True,17164,-172,-2716,1.047607421875,-0.010498046875,-0.165771484375,20,16,-20,1.2195121951219514,0.9756097560975611,-1.2195121951219514,-176.37638474521697,-80.99045672172788
2025-08-25T16:44:31.105044+03:00,1756129471.105035,0.062680,2,True,17494,-298,-3854,1.0677490234375,-0.0181884765625,-0.2352294921875,-70,8,2,-4.2682926829268295,0.48780487804878053,0.12195121951219513,-175.5785554276849,-77.5400337020706
2025-08-25T16:44:31.167673+03:00,1756129471.167621,0.062586,1,True,17192,-148,-2704,1.04931640625,-0.009033203125,-0.1650390625,20,15,-18,1.2195121951219514,0.9146341463414634,-1.0975609756097562,-176.8671115651691,-81.0484408137645
2025-08-25T16:44:31.167673+03:00,1756129471.167621,0.062586,2,True,17472,-274,-3866,1.06640625,-0.0167236328125,-0.2359619140625,-70,8,3,-4.2682926829268295,0.48780487804878053,0.1829268292682927,-175.9459785118213,-77.49297098572919
2025-08-25T16:44:31.230270+03:00,1756129471.230263,0.062641,1,True,17124,-192,-2712,1.045166015625,-0.01171875,-0.16552734375,20,17,-21,1.2195121951219514,1.0365853658536586,-1.2804878048780488,-175.95041549273122,-80.9784154355865
2025-08-25T16:44:31.230270+03:00,1756129471.230263,0.062641,2,True,17488,-292,-3872,1.0673828125,-0.017822265625,-0.236328125,-70,8,1,-4.2682926829268295,0.48780487804878053,0.06097560975609757,-175.6873010885467,-77.48126807381847
2025-08-25T16:44:31.292850+03:00,1756129471.292842,0.062579,1,True,17178,-178,-2672,1.0484619140625,-0.0108642578125,-0.1630859375,20,17,-21,1.2195121951219514,1.0365853658536586,-1.2804878048780488,-176.1887687874168,-81.13933258704434
2025-08-25T16:44:31.292850+03:00,1756129471.292842,0.062579,2,True,17458,-288,-3874,1.0655517578125,-0.017578125,-0.2364501953125,-71,9,1,-4.329268292682928,0.5487804878048781,0.06097560975609757,-175.74834880337707,-77.45513274537663
2025-08-25T16:44:31.355455+03:00,1756129471.355448,0.062606,1,True,17170,-166,-2700,1.0479736328125,-0.0101318359375,-0.164794921875,20,16,-21,1.2195121951219514,0.9756097560975611,-1.2804878048780488,-176.48179622197037,-81.04675973467246
2025-08-25T16:44:31.355455+03:00,1756129471.355448,0.062606,2,True,17490,-292,-3854,1.0675048828125,-0.017822265625,-0.2352294921875,-70,9,2,-4.2682926829268295,0.5487804878048781,0.12195121951219513,-175.66723528609677,-77.53870337213375
2025-08-25T16:44:31.418073+03:00,1756129471.418067,0.062618,1,True,17170,-178,-2692,1.0479736328125,-0.0108642578125,-0.164306640625,19,16,-20,1.1585365853658538,0.9756097560975611,-1.2195121951219514,-176.217001479355,-81.07026974466744
2025-08-25T16:44:31.418073+03:00,1756129471.418067,0.062618,2,True,17482,-286,-3862,1.0670166015625,-0.0174560546875,-0.2357177734375,-70,9,2,-4.2682926829268295,0.5487804878048781,0.12195121951219513,-175.76469535107958,-77.50965417402385
2025-08-25T16:44:31.480631+03:00,1756129471.480624,0.062558,1,True,17176,-172,-2708,1.04833984375,-0.010498046875,-0.165283203125,20,16,-20,1.2195121951219514,0.9756097560975611,-1.2195121951219514,-176.36570848246038,-81.02263064557467
2025-08-25T16:44:31.480631+03:00,1756129471.480624,0.062558,2,True,17502,-302,-3876,1.0682373046875,-0.0184326171875,-0.236572265625,-70,9,2,-4.2682926829268295,0.5487804878048781,0.12195121951219513,-175.5447760051644,-77.47613859132869
2025-08-25T16:44:31.543242+03:00,1756129471.543235,0.062611,1,True,17174,-148,-2696,1.0482177734375,-0.009033203125,-0.16455078125,20,17,-21,1.2195121951219514,1.0365853658536586,-1.2804878048780488,-176.85783376971196,-81.06521574551623
2025-08-25T16:44:31.543242+03:00,1756129471.543235,0.062611,2,True,17460,-276,-3864,1.065673828125,-0.016845703125,-0.23583984375,-70,9,2,-4.2682926829268295,0.5487804878048781,0.12195121951219513,-175.914380416602,-77.49044115802329
2025-08-25T16:44:31.605886+03:00,1756129471.605879,0.062644,1,True,17172,-150,-2714,1.048095703125,-0.0091552734375,-0.1656494140625,20,16,-19,1.2195121951219514,0.9756097560975611,-1.1585365853658538,-176.83653661614443,-81.00532253984942
2025-08-25T16:44:31.605886+03:00,1756129471.605879,0.062644,2,True,17488,-308,-3898,1.0673828125,-0.018798828125,-0.2379150390625,-70,9,1,-4.2682926829268295,0.5487804878048781,0.06097560975609757,-175.48216462951248,-77.39650952313951
2025-08-25T16:44:31.668449+03:00,1756129471.668442,0.062563,1,True,17170,-172,-2682,1.0479736328125,-0.010498046875,-0.1636962890625,20,16,-21,1.2195121951219514,0.9756097560975611,-1.2804878048780488,-176.33057254856442,-81.10403957006827
2025-08-25T16:44:31.668449+03:00,1756129471.668442,0.062563,2,True,17468,-266,-3868,1.066162109375,-0.0162353515625,-0.236083984375,-71,9,1,-4.329268292682928,0.5487804878048781,0.06097560975609757,-176.06599519224264,-77.48570205468876
2025-08-25T16:44:31.730981+03:00,1756129471.730973,0.062531,1,True,17172,-174,-2682,1.048095703125,-0.0106201171875,-0.1636962890625,20,16,-20,1.2195121951219514,0.9756097560975611,-1.2195121951219514,-176.2880234294506,-81.10463981884446
2025-08-25T16:44:31.730981+03:00,1756129471.730973,0.062531,2,True,17488,-284,-3876,1.0673828125,-0.017333984375,-0.236572265625,-70,9,1,-4.2682926829268295,0.5487804878048781,0.06097560975609757,-175.80934317524827,-77.47066532105376
2025-08-25T16:44:31.793569+03:00,1756129471.793562,0.062588,1,True,17182,-306,-2714,1.0487060546875,-0.0186767578125,-0.1656494140625,23,17,-21,1.402439024390244,1.0365853658536586,-1.2804878048780488,-173.56713893533933,-80.96800917203863
2025-08-25T16:44:31.793569+03:00,1756129471.793562,0.062588,2,True,17428,-596,-3952,1.063720703125,-0.036376953125,-0.2412109375,-66,9,0,-4.024390243902439,0.5487804878048781,0.0,-171.42386459328142,-77.08393208897063
2025-08-25T16:44:31.856171+03:00,1756129471.856164,0.062602,1,True,17156,-262,-2706,1.047119140625,-0.0159912109375,-0.1651611328125,1,16,-18,0.06097560975609757,0.9756097560975611,-1.0975609756097562,-174.4697503512255,-80.99540301484973
2025-08-25T16:44:31.856171+03:00,1756129471.856164,0.062602,2,True,17488,-284,-3838,1.0673828125,-0.017333984375,-0.2342529296875,-100,9,2,-6.097560975609756,0.5487804878048781,0.12195121951219513,-175.76800156136875,-77.58903895344484
2025-08-25T16:44:31.918767+03:00,1756129471.918761,0.062597,1,True,17178,-162,-2668,1.0484619140625,-0.0098876953125,-0.162841796875,-9,17,-19,-0.5487804878048781,1.0365853658536586,-1.1585365853658538,-176.52528415786392,-81.15564259622644
2025-08-25T16:44:31.918767+03:00,1756129471.918761,0.062597,2,True,17482,-186,-3796,1.0670166015625,-0.0113525390625,-0.231689453125,-92,12,0,-5.609756097560976,0.7317073170731708,0.0,-177.19480790932118,-77.7348514084989
2025-08-25T16:44:31.981318+03:00,1756129471.981311,0.062550,1,True,17166,-68,-2624,1.0477294921875,-0.004150390625,-0.16015625,11,20,-20,0.6707317073170732,1.2195121951219514,-1.2195121951219514,-178.5155302383792,-81.30615032541348
2025-08-25T16:44:31.981318+03:00,1756129471.981311,0.062550,2,True,17502,-364,-3904,1.0682373046875,-0.022216796875,-0.23828125,-81,14,-1,-4.939024390243903,0.853658536585366,-0.06097560975609757,-174.67327017043405,-77.37265145371926
2025-08-25T16:44:32.043973+03:00,1756129472.043965,0.062654,1,True,17182,-188,-2650,1.0487060546875,-0.011474609375,-0.1617431640625,2,17,-24,0.12195121951219513,1.0365853658536586,-1.4634146341463417,-175.94203874997172,-81.2105953917904
2025-08-25T16:44:32.043973+03:00,1756129472.043965,0.062654,2,True,17958,-278,-3796,1.0960693359375,-0.0169677734375,-0.231689453125,-94,10,-18,-5.731707317073171,0.6097560975609757,-1.0975609756097562,-175.81141929899337,-78.03335184379618
2025-08-25T16:44:32.106671+03:00,1756129472.106662,0.062696,1,True,17520,-124,-2632,1.0693359375,-0.007568359375,-0.16064453125,-2,17,-150,-0.12195121951219513,1.0365853658536586,-9.146341463414634,-177.30264642478366,-81.44710390011451
2025-08-25T16:44:32.106671+03:00,1756129472.106662,0.062696,2,True,17170,40,-3996,1.0479736328125,0.00244140625,-0.243896484375,-85,42,-191,-5.182926829268293,2.5609756097560976,-11.646341463414634,179.4264849690018,-76.89804870663775
2025-08-25T16:44:32.169749+03:00,1756129472.169730,0.063068,1,True,17438,188,-2684,1.0643310546875,0.011474609375,-0.163818359375,-5,103,-195,-0.30487804878048785,6.2804878048780495,-11.890243902439025,175.99327509418328,-81.22878015086151
2025-08-25T16:44:32.169749+03:00,1756129472.169730,0.063068,2,True,17446,62,-3502,1.0648193359375,0.0037841796875,-0.2137451171875,-96,78,-154,-5.853658536585367,4.75609756097561,-9.390243902439025,178.98572894256947,-78.64791883019402
2025-08-25T16:44:32.232626+03:00,1756129472.232617,0.062887,1,True,17278,220,-2582,1.0545654296875,0.013427734375,-0.1575927734375,15,81,-167,0.9146341463414634,4.939024390243903,-10.182926829268293,175.1298579095622,-81.47034993619651
2025-08-25T16:44:32.232626+03:00,1756129472.232617,0.062887,2,True,17678,38,-3596,1.0789794921875,0.0023193359375,-0.219482421875,-71,87,-159,-4.329268292682928,5.3048780487804885,-9.695121951219512,179.39455815768085,-78.50133383776095
2025-08-25T16:44:32.295274+03:00,1756129472.295266,0.062649,1,True,17162,648,-2318,1.0474853515625,0.03955078125,-0.1414794921875,28,91,-188,1.707317073170732,5.548780487804878,-11.463414634146343,164.38159130630578,-82.01666597147722
2025-08-25T16:44:32.295274+03:00,1756129472.295266,0.062649,2,True,17304,512,-3456,1.05615234375,0.03125,-0.2109375,-53,59,-130,-3.231707317073171,3.5975609756097566,-7.926829268292684,171.57302824428126,-78.58529449202231
2025-08-25T16:44:32.357898+03:00,1756129472.357890,0.062625,1,True,16984,600,-2490,1.03662109375,0.03662109375,-0.1519775390625,28,29,-83,1.707317073170732,1.7682926829268295,-5.060975609756098,166.4520583593707,-81.42413983618586
2025-08-25T16:44:32.357898+03:00,1756129472.357890,0.062625,2,True,17426,572,-3502,1.0635986328125,0.034912109375,-0.2137451171875,-66,16,-36,-4.024390243902439,0.9756097560975611,-2.1951219512195124,170.72349283000833,-78.49038006514225
2025-08-25T16:44:32.420472+03:00,1756129472.420466,0.062575,1,True,17292,754,-2374,1.055419921875,0.0460205078125,-0.1448974609375,28,18,-64,1.707317073170732,1.0975609756097562,-3.9024390243902443,162.37976352081643,-81.80309402061064
2025-08-25T16:44:32.420472+03:00,1756129472.420466,0.062575,2,True,17638,686,-3622,1.0765380859375,0.0418701171875,-0.2210693359375,-61,13,-60,-3.7195121951219514,0.7926829268292683,-3.658536585365854,169.2753173855367,-78.1949533140516
2025-08-25T16:44:32.483030+03:00,1756129472.483023,0.062557,1,True,17180,784,-2456,1.048583984375,0.0478515625,-0.14990234375,21,17,-93,1.2804878048780488,1.0365853658536586,-5.670731707317073,162.295965890146,-81.46565013415213
2025-08-25T16:44:32.483030+03:00,1756129472.483023,0.062557,2,True,17436,568,-3540,1.064208984375,0.03466796875,-0.216064453125,-64,12,-70,-3.9024390243902443,0.7317073170731708,-4.2682926829268295,170.88447214024947,-78.3805070430771
2025-08-25T16:44:32.545618+03:00,1756129472.545611,0.062588,1,True,17182,586,-2492,1.0487060546875,0.0357666015625,-0.152099609375,30,18,-82,1.829268292682927,1.0975609756097562,-5.0,166.76716675960876,-81.5257504303092
2025-08-25T16:44:32.545618+03:00,1756129472.545611,0.062588,2,True,17530,472,-3794,1.0699462890625,0.02880859375,-0.2315673828125,-69,11,-65,-4.207317073170732,0.6707317073170732,-3.963414634146342,172.90843936670518,-77.69660039241401
2025-08-25T16:44:32.608247+03:00,1756129472.608240,0.062629,1,True,17100,702,-2416,1.043701171875,0.0428466796875,-0.1474609375,6,18,-84,0.3658536585365854,1.0975609756097562,-5.121951219512195,163.79809228743525,-81.63012639955451
2025-08-25T16:44:32.608247+03:00,1756129472.608240,0.062629,2,True,17194,692,-3446,1.0494384765625,0.042236328125,-0.2103271484375,-88,10,-44,-5.365853658536586,0.6097560975609757,-2.682926829268293,168.645307514996,-78.44677718410814
2025-08-25T16:44:32.670814+03:00,1756129472.670808,0.062568,1,True,17092,994,-2234,1.043212890625,0.0606689453125,-0.1363525390625,23,15,-43,1.402439024390244,0.9146341463414634,-2.6219512195121952,156.01371658821554,-81.8585873183336
2025-08-25T16:44:32.670814+03:00,1756129472.670808,0.062568,2,True,17430,828,-3404,1.0638427734375,0.050537109375,-0.207763671875,-49,9,-15,-2.987804878048781,0.5487804878048781,-0.9146341463414634,166.3286902171414,-78.63553572166558
2025-08-25T16:44:32.733352+03:00,1756129472.733345,0.062537,1,True,17176,768,-2518,1.04833984375,0.046875,-0.1536865234375,36,17,-34,2.1951219512195124,1.0365853658536586,-2.073170731707317,163.03808333652628,-81.2862438993979
2025-08-25T16:44:32.733352+03:00,1756129472.733345,0.062537,2,True,17476,734,-3630,1.066650390625,0.0447998046875,-0.2215576171875,-63,9,-13,-3.8414634146341466,0.5487804878048781,-0.7926829268292683,168.56870137039127,-78.03505119411
2025-08-25T16:44:32.795939+03:00,1756129472.795932,0.062586,1,True,17190,890,-2390,1.0491943359375,0.0543212890625,-0.1458740234375,25,15,-42,1.524390243902439,0.9146341463414634,-2.5609756097560976,159.57542465351398,-81.56107126909313
2025-08-25T16:44:32.795939+03:00,1756129472.795932,0.062586,2,True,17418,806,-3572,1.0631103515625,0.0491943359375,-0.218017578125,-66,7,-21,-4.024390243902439,0.426829268292683,-1.2804878048780488,167.28450380022014,-78.12753759861059
2025-08-25T16:44:32.858545+03:00,1756129472.858538,0.062606,1,True,17240,910,-2400,1.05224609375,0.0555419921875,-0.146484375,28,13,-48,1.707317073170732,0.7926829268292683,-2.9268292682926833,159.23493983839901,-81.53187824987161
2025-08-25T16:44:32.858545+03:00,1756129472.858538,0.062606,2,True,17452,846,-3610,1.065185546875,0.0516357421875,-0.2203369140625,-62,7,-29,-3.780487804878049,0.426829268292683,-1.7682926829268295,166.8107971028278,-78.00544047907289
2025-08-25T16:44:32.921163+03:00,1756129472.921156,0.062618,1,True,17156,840,-2556,1.047119140625,0.05126953125,-0.156005859375,14,11,-51,0.853658536585366,0.6707317073170732,-3.1097560975609757,161.80748345421642,-81.08718175067072
2025-08-25T16:44:32.921163+03:00,1756129472.921156,0.062618,2,True,17316,592,-3916,1.056884765625,0.0361328125,-0.239013671875,-98,1,-28,-5.975609756097562,0.06097560975609757,-1.707317073170732,171.40342051442656,-77.11697238877717
2025-08-25T16:44:32.983731+03:00,1756129472.983724,0.062568,1,True,17086,866,-2564,1.0428466796875,0.0528564453125,-0.156494140625,-28,4,-25,-1.707317073170732,0.24390243902439027,-1.524390243902439,161.3374199246936,-80.99953407912477
2025-08-25T16:44:32.983731+03:00,1756129472.983724,0.062568,2,True,17406,828,-3618,1.0623779296875,0.050537109375,-0.2208251953125,-108,-4,4,-6.585365853658537,-0.24390243902439027,0.24390243902439027,167.10951670714238,-77.9629109868237
2025-08-25T16:44:33.046341+03:00,1756129473.046334,0.062610,1,True,17142,904,-2528,1.0462646484375,0.05517578125,-0.154296875,-30,5,-7,-1.829268292682927,0.30487804878048785,-0.426829268292683,160.3232045449591,-81.0986731671467
2025-08-25T16:44:33.046341+03:00,1756129473.046334,0.062610,2,True,17430,754,-3626,1.0638427734375,0.0460205078125,-0.2213134765625,-125,-2,16,-7.621951219512196,-0.12195121951219513,0.9756097560975611,168.25316417020582,-78.00407518074479
2025-08-25T16:44:33.109043+03:00,1756129473.109033,0.062699,1,True,17282,1070,-2152,1.0548095703125,0.0653076171875,-0.13134765625,-3,12,-14,-0.1829268292682927,0.7317073170731708,-0.853658536585366,153.56288612475248,-82.08290253661484
2025-08-25T16:44:33.109043+03:00,1756129473.109033,0.062699,2,True,17518,1002,-3304,1.0692138671875,0.0611572265625,-0.20166015625,-75,7,-6,-4.573170731707317,0.426829268292683,-0.3658536585365854,163.1290856950182,-78.85055703291604
2025-08-25T16:44:33.171729+03:00,1756129473.171722,0.062689,1,True,17084,982,-2328,1.042724609375,0.0599365234375,-0.14208984375,23,16,-15,1.402439024390244,0.9756097560975611,-0.9146341463414634,157.1289439894553,-81.58721814134084
2025-08-25T16:44:33.171729+03:00,1756129473.171722,0.062689,2,True,17670,822,-3492,1.0784912109375,0.0501708984375,-0.213134765625,-67,8,3,-4.085365853658537,0.48780487804878053,0.1829268292682927,166.75399037706222,-78.52353698129258
2025-08-25T16:44:33.234334+03:00,1756129473.234327,0.062605,1,True,17462,872,-2514,1.0657958984375,0.05322265625,-0.1534423828125,18,17,-68,1.0975609756097562,1.0365853658536586,-4.146341463414634,160.87050579765017,-81.33567171768821
2025-08-25T16:44:33.234334+03:00,1756129473.234327,0.062605,2,True,17900,900,-3804,1.092529296875,0.054931640625,-0.232177734375,-83,11,-78,-5.060975609756098,0.6707317073170732,-4.75609756097561,166.68897817472836,-77.68109773712592
2025-08-25T16:44:33.296881+03:00,1756129473.296875,0.062547,1,True,17226,1338,-2378,1.0513916015625,0.0816650390625,-0.1451416015625,-5,17,-140,-0.30487804878048785,1.0365853658536586,-8.536585365853659,150.6353809167822,-80.99920110386064
2025-08-25T16:44:33.296881+03:00,1756129473.296875,0.062547,2,True,17180,1378,-3290,1.048583984375,0.0841064453125,-0.2008056640625,-81,13,-116,-4.939024390243903,0.7926829268292683,-7.073170731707318,157.27386919885407,-78.27082995173765
2025-08-25T16:44:33.359463+03:00,1756129473.359456,0.062581,1,True,16922,1234,-2414,1.0328369140625,0.0753173828125,-0.1473388671875,25,19,-94,1.524390243902439,1.1585365853658538,-5.731707317073171,152.92457187904233,-80.89784925325279
2025-08-25T16:44:33.359463+03:00,1756129473.359456,0.062581,2,True,17242,1088,-3688,1.0523681640625,0.06640625,-0.22509765625,-71,12,-43,-4.329268292682928,0.7317073170731708,-2.6219512195121952,163.5633664915325,-77.42818656523275
2025-08-25T16:44:33.422076+03:00,1756129473.422069,0.062613,1,True,17022,1032,-2546,1.0389404296875,0.06298828125,-0.1553955078125,-2,14,-40,-0.12195121951219513,0.853658536585366,-2.439024390243903,157.93523220595537,-80.83200255283428
2025-08-25T16:44:33.422076+03:00,1756129473.422069,0.062613,2,True,17300,918,-3988,1.055908203125,0.0560302734375,-0.243408203125,-129,4,3,-7.865853658536586,0.24390243902439027,0.1829268292682927,167.03686289370103,-76.691382703421
2025-08-25T16:44:33.484626+03:00,1756129473.484619,0.062550,1,True,17228,1234,-2500,1.051513671875,0.0753173828125,-0.152587890625,-65,6,-17,-3.963414634146342,0.3658536585365854,-1.0365853658536586,153.72905109574378,-80.80764972765324
2025-08-25T16:44:33.484626+03:00,1756129473.484619,0.062550,2,True,17808,914,-3744,1.0869140625,0.0557861328125,-0.228515625,-160,-2,-22,-9.756097560975611,-0.12195121951219513,-1.3414634146341464,166.28105892001204,-77.788551754699
2025-08-25T16:44:33.547161+03:00,1756129473.547154,0.062536,1,True,17434,1368,-2426,1.0640869140625,0.08349609375,-0.1480712890625,-83,6,-95,-5.060975609756098,0.3658536585365854,-5.7926829268292686,150.5817298393893,-80.92356157090079
2025-08-25T16:44:33.547161+03:00,1756129473.547154,0.062536,2,True,17990,1428,-3408,1.0980224609375,0.087158203125,-0.2080078125,-150,4,-116,-9.146341463414634,0.24390243902439027,-7.073170731707318,157.26562701840723,-78.39306878926901
2025-08-25T16:44:33.609758+03:00,1756129473.609751,0.062597,1,True,17398,1584,-2402,1.0618896484375,0.0966796875,-0.1466064453125,-47,11,-216,-2.8658536585365857,0.6707317073170732,-13.170731707317074,146.59712462231263,-80.60946821013941
2025-08-25T16:44:33.609758+03:00,1756129473.609751,0.062597,2,True,17682,1632,-3464,1.0792236328125,0.099609375,-0.21142578125,-123,10,-221,-7.500000000000001,0.6097560975609757,-13.475609756097562,154.77338927743165,-77.78077808445467
2025-08-25T16:44:33.672397+03:00,1756129473.672390,0.062639,1,True,16876,2012,-2728,1.030029296875,0.122802734375,-0.16650390625,-47,6,-252,-2.8658536585365857,0.3658536585365854,-15.365853658536587,143.58986279683342,-78.64270871332808
2025-08-25T16:44:33.672397+03:00,1756129473.672390,0.062639,2,True,16972,2308,-4328,1.035888671875,0.140869140625,-0.26416015625,-196,-2,-199,-11.951219512195124,-0.12195121951219513,-12.134146341463415,151.93025916925242,-73.88060155836449
2025-08-25T16:44:33.734988+03:00,1756129473.734981,0.062591,1,True,16844,2666,-2646,1.028076171875,0.1627197265625,-0.1614990234375,-172,-4,-175,-10.487804878048781,-0.24390243902439027,-10.670731707317074,134.78427680994537,-77.42884245207043
2025-08-25T16:44:33.734988+03:00,1756129473.734981,0.062591,2,True,17184,2248,-3480,1.048828125,0.13720703125,-0.21240234375,-255,-10,-145,-15.54878048780488,-0.6097560975609757,-8.841463414634147,147.13846693388447,-76.44509147065601
2025-08-25T16:44:33.797539+03:00,1756129473.797533,0.062551,1,True,17030,1370,-2216,1.0394287109375,0.0836181640625,-0.13525390625,-141,-12,-140,-8.597560975609756,-0.7317073170731708,-8.536585365853659,148.27435398913772,-81.30217615787961
2025-08-25T16:44:33.797539+03:00,1756129473.797533,0.062551,2,True,17488,1214,-2822,1.0673828125,0.0740966796875,-0.1722412109375,-185,-15,-119,-11.28048780487805,-0.9146341463414634,-7.25609756097561,156.72304043888295,-80.03672859958307
2025-08-25T16:44:33.860094+03:00,1756129473.860087,0.062555,1,True,17158,2072,-2164,1.0472412109375,0.12646484375,-0.132080078125,-34,-2,-158,-2.073170731707317,-0.12195121951219513,-9.634146341463415,136.24418648400354,-80.09526653283133
2025-08-25T16:44:33.860094+03:00,1756129473.860087,0.062555,2,True,17076,2182,-3314,1.042236328125,0.1331787109375,-0.2022705078125,-107,-2,-127,-6.52439024390244,-0.12195121951219513,-7.743902439024391,146.63833797082583,-76.91869695942438
2025-08-25T16:44:33.922646+03:00,1756129473.922639,0.062552,1,True,16788,2354,-2430,1.024658203125,0.1436767578125,-0.1483154296875,-6,11,-103,-0.3658536585365854,0.6707317073170732,-6.2804878048780495,135.91013850699417,-78.60599687304278
2025-08-25T16:44:33.922646+03:00,1756129473.922639,0.062552,2,True,17176,2366,-3478,1.04833984375,0.1444091796875,-0.2122802734375,-93,3,-67,-5.670731707317073,0.1829268292682927,-4.085365853658537,145.77348263996646,-76.23887186273078
2025-08-25T16:44:33.985199+03:00,1756129473.985192,0.062553,1,True,17100,2446,-2464,1.043701171875,0.1492919921875,-0.150390625,0,8,-89,0.0,0.48780487804878053,-5.426829268292684,135.21004253183654,-78.52289822448488
2025-08-25T16:44:33.985199+03:00,1756129473.985192,0.062553,2,True,17554,2340,-3528,1.0714111328125,0.142822265625,-0.21533203125,-89,-2,-88,-5.426829268292684,-0.12195121951219513,-5.365853658536586,146.4450614451296,-76.44094202149522
2025-08-25T16:44:34.047732+03:00,1756129474.047726,0.062534,1,True,17262,2428,-2422,1.0535888671875,0.148193359375,-0.1478271484375,-1,-2,-177,-0.06097560975609757,-0.12195121951219513,-10.792682926829269,134.92911650917293,-78.76326494832165
2025-08-25T16:44:34.047732+03:00,1756129474.047726,0.062534,2,True,16326,2446,-3874,0.9964599609375,0.1492919921875,-0.2364501953125,-116,-25,-164,-7.073170731707318,-1.524390243902439,-10.0,147.7321442838211,-74.32426772067367
2025-08-25T16:44:34.117247+03:00,1756129474.117234,0.069508,1,True,16690,2740,-2476,1.0186767578125,0.167236328125,-0.151123046875,-10,-3,-182,-0.6097560975609757,-0.1829268292682927,-11.097560975609756,132.10253061872186,-77.5232126284948
2025-08-25T16:44:34.117247+03:00,1756129474.117234,0.069508,2,True,17142,2756,-3576,1.0462646484375,0.168212890625,-0.21826171875,-91,2,-147,-5.548780487804878,0.12195121951219513,-8.963414634146343,142.37878967053172,-75.2447595871941
2025-08-25T16:44:34.187600+03:00,1756129474.187583,0.070350,1,True,16764,3014,-2530,1.023193359375,0.1839599609375,-0.1544189453125,8,7,-132,0.48780487804878053,0.426829268292683,-8.048780487804878,130.0106353584702,-76.78979465702217
2025-08-25T16:44:34.187600+03:00,1756129474.187583,0.070350,2,True,16842,2936,-3588,1.0279541015625,0.17919921875,-0.218994140625,-74,9,-70,-4.51219512195122,0.5487804878048781,-4.2682926829268295,140.707112732129,-74.60921578946042
2025-08-25T16:44:34.258173+03:00,1756129474.258160,0.070577,1,True,16724,3044,-2604,1.020751953125,0.185791015625,-0.158935546875,13,14,-42,0.7926829268292683,0.853658536585366,-2.5609756097560976,130.5454426943139,-76.52992494537158
2025-08-25T16:44:34.258173+03:00,1756129474.258160,0.070577,2,True,15932,2972,-3676,0.972412109375,0.181396484375,-0.224365234375,-90,-15,-13,-5.487804878048781,-0.9146341463414634,-0.7926829268292683,141.04489207306898,-73.47402631808413
2025-08-25T16:44:34.328394+03:00,1756129474.328383,0.070223,1,True,17666,3074,-2370,1.0782470703125,0.1876220703125,-0.1446533203125,14,-20,-22,0.853658536585366,-1.2195121951219514,-1.3414634146341464,127.63158994693701,-77.60797777734192
2025-08-25T16:44:34.328394+03:00,1756129474.328383,0.070223,2,True,17864,3028,-3424,1.09033203125,0.184814453125,-0.208984375,-68,-23,-7,-4.146341463414634,-1.402439024390244,-0.426829268292683,138.5121959530173,-75.6477240915193
2025-08-25T16:44:34.398643+03:00,1756129474.398630,0.070247,1,True,17386,3296,-2256,1.0611572265625,0.201171875,-0.1376953125,43,39,-46,2.6219512195121952,2.378048780487805,-2.804878048780488,124.39031242639211,-77.06175893730244
2025-08-25T16:44:34.398643+03:00,1756129474.398630,0.070247,2,True,18136,3152,-3194,1.10693359375,0.1923828125,-0.1949462890625,-18,8,-51,-1.0975609756097562,0.48780487804878053,-3.1097560975609757,135.37919538506173,-76.10240516602379
2025-08-25T16:44:34.468769+03:00,1756129474.468758,0.070128,1,True,16790,3236,-2510,1.0247802734375,0.197509765625,-0.1531982421875,115,41,-130,7.01219512195122,2.5,-7.926829268292684,127.79890468289916,-76.29234086479717
2025-08-25T16:44:34.468769+03:00,1756129474.468758,0.070128,2,True,17666,3084,-3576,1.0782470703125,0.188232421875,-0.21826171875,35,47,-151,2.1341463414634148,2.8658536585365857,-9.207317073170733,139.22498438120027,-75.03458129183332
2025-08-25T16:44:34.538902+03:00,1756129474.538892,0.070133,1,True,16940,3274,-2672,1.033935546875,0.1998291015625,-0.1630859375,111,32,-212,6.7682926829268295,1.9512195121951221,-12.926829268292684,129.21881298912896,-75.99256550027299
2025-08-25T16:44:34.538902+03:00,1756129474.538892,0.070133,2,True,17104,3266,-3806,1.0439453125,0.1993408203125,-0.2322998046875,7,34,-207,0.426829268292683,2.073170731707317,-12.621951219512196,139.36648525887884,-73.65786461123828
2025-08-25T16:44:34.609128+03:00,1756129474.609117,0.070225,1,True,16960,3432,-2662,1.03515625,0.20947265625,-0.1624755859375,76,23,-246,4.634146341463415,1.402439024390244,-15.000000000000002,127.79862122495918,-75.63555601070286
2025-08-25T16:44:34.609128+03:00,1756129474.609117,0.070225,2,True,17024,3160,-4000,1.0390625,0.19287109375,-0.244140625,-13,23,-206,-0.7926829268292683,1.402439024390244,-12.560975609756099,141.69126217451878,-73.33037858572149
2025-08-25T16:44:34.679210+03:00,1756129474.679199,0.070082,1,True,16868,3492,-2738,1.029541015625,0.213134765625,-0.1671142578125,51,21,-209,3.1097560975609757,1.2804878048780488,-12.74390243902439,128.099207929553,-75.26128389030349
2025-08-25T16:44:34.679210+03:00,1756129474.679199,0.070082,2,True,16910,3762,-3864,1.0321044921875,0.2296142578125,-0.23583984375,-64,11,-168,-3.9024390243902443,0.6707317073170732,-10.24390243902439,135.76630009751057,-72.31165648357653
2025-08-25T16:44:34.749393+03:00,1756129474.749383,0.070184,1,True,16652,3968,-2592,1.016357421875,0.2421875,-0.158203125,9,19,-167,0.5487804878048781,1.1585365853658538,-10.182926829268293,123.15360390416863,-74.11235020212487
2025-08-25T16:44:34.749393+03:00,1756129474.749383,0.070184,2,True,16866,3922,-3764,1.0294189453125,0.2393798828125,-0.229736328125,-84,7,-133,-5.121951219512195,0.426829268292683,-8.109756097560977,133.8223426103864,-72.1356857184073
2025-08-25T16:44:34.819573+03:00,1756129474.819561,0.070179,1,True,16510,4124,-2582,1.0076904296875,0.251708984375,-0.1575927734375,-7,11,-140,-0.426829268292683,0.6707317073170732,-8.536585365853659,122.05031716213372,-73.57941262199044
2025-08-25T16:44:34.819573+03:00,1756129474.819561,0.070179,2,True,16920,4030,-3640,1.03271484375,0.2459716796875,-0.22216796875,-100,6,-112,-6.097560975609756,0.3658536585365854,-6.829268292682928,132.08916006882066,-72.20583805376144
2025-08-25T16:44:34.890032+03:00,1756129474.890018,0.070457,1,True,16446,4316,-2590,1.0037841796875,0.263427734375,-0.1580810546875,-12,8,-118,-0.7317073170731708,0.48780487804878053,-7.195121951219513,120.96765891635364,-72.98267875019677
2025-08-25T16:44:34.890032+03:00,1756129474.890018,0.070457,2,True,16638,4244,-3628,1.0155029296875,0.259033203125,-0.221435546875,-102,5,-80,-6.219512195121951,0.30487804878048785,-4.878048780487806,130.52560465713594,-71.44933510818288
2025-08-25T16:44:34.960367+03:00,1756129474.960354,0.070336,1,True,16610,4378,-2524,1.0137939453125,0.2672119140625,-0.154052734375,-253,12,-99,-15.426829268292684,0.7317073170731708,-6.036585365853659,119.96426228053812,-73.07803346533343
2025-08-25T16:44:34.960367+03:00,1756129474.960354,0.070336,2,True,16808,4192,-3560,1.02587890625,0.255859375,-0.21728515625,-75,9,-77,-4.573170731707317,0.5487804878048781,-4.695121951219512,130.3391332099634,-71.88159171888148
2025-08-25T16:44:35.030643+03:00,1756129475.030631,0.070276,1,True,16572,4372,-2560,1.011474609375,0.266845703125,-0.15625,14,15,-89,0.853658536585366,0.9146341463414634,-5.426829268292684,120.35086443980104,-73.00066533140313
2025-08-25T16:44:35.030643+03:00,1756129475.030631,0.070276,2,True,16900,4374,-3584,1.031494140625,0.2669677734375,-0.21875,-74,9,-73,-4.51219512195122,0.5487804878048781,-4.451219512195122,129.3307529989698,-71.4995292031551
2025-08-25T16:44:35.100845+03:00,1756129475.100831,0.070200,1,True,16508,4740,-2470,1.007568359375,0.289306640625,-0.1507568359375,35,22,-110,2.1341463414634148,1.3414634146341464,-6.707317073170732,117.5238849654324,-72.05911220784137
2025-08-25T16:44:35.100845+03:00,1756129475.100831,0.070200,2,True,16880,4600,-3574,1.0302734375,0.28076171875,-0.2181396484375,-44,22,-99,-2.682926829268293,1.3414634146341464,-6.036585365853659,127.84565136689257,-70.9605758045058
2025-08-25T16:44:35.171190+03:00,1756129475.171178,0.070347,1,True,16536,4880,-2502,1.00927734375,0.2978515625,-0.1527099609375,51,25,-143,3.1097560975609757,1.524390243902439,-8.719512195121952,117.14443558419785,-71.65236799727023
2025-08-25T16:44:35.171190+03:00,1756129475.171178,0.070347,2,True,16772,4648,-3518,1.023681640625,0.28369140625,-0.2147216796875,-32,25,-129,-1.9512195121951221,1.524390243902439,-7.865853658536586,127.12151891750476,-70.83465351231996
2025-08-25T16:44:35.241407+03:00,1756129475.241396,0.070218,1,True,16408,4812,-2612,1.00146484375,0.293701171875,-0.159423828125,62,33,-152,3.780487804878049,2.0121951219512195,-9.26829268292683,118.49353459534021,-71.54659362789914
2025-08-25T16:44:35.241407+03:00,1756129475.241396,0.070218,2,True,16778,4724,-3654,1.0240478515625,0.288330078125,-0.2230224609375,-31,28,-129,-1.8902439024390245,1.707317073170732,-7.865853658536586,127.72184320348647,-70.40641459736493
2025-08-25T16:44:35.311597+03:00,1756129475.311586,0.070190,1,True,16444,4998,-2598,1.003662109375,0.3050537109375,-0.1585693359375,61,33,-179,3.7195121951219514,2.0121951219512195,-10.914634146341465,117.46576629636974,-71.09106591444849
2025-08-25T16:44:35.311597+03:00,1756129475.311586,0.070190,2,True,16798,4988,-3658,1.0252685546875,0.304443359375,-0.2232666015625,-27,31,-172,-1.6463414634146343,1.8902439024390245,-10.487804878048781,126.25483167144682,-69.78469163277083
2025-08-25T16:44:35.381880+03:00,1756129475.381868,0.070282,1,True,16294,5240,-2578,0.9945068359375,0.31982421875,-0.1573486328125,57,33,-208,3.4756097560975614,2.0121951219512195,-12.682926829268293,116.19647993543718,-70.28211259565165
2025-08-25T16:44:35.381880+03:00,1756129475.381868,0.070282,2,True,16538,5262,-3654,1.0093994140625,0.3211669921875,-0.2230224609375,-35,30,-185,-2.1341463414634148,1.829268292682927,-11.28048780487805,124.77660503061071,-68.82527637779187
2025-08-25T16:44:35.452132+03:00,1756129475.452120,0.070252,1,True,16286,5382,-2604,0.9940185546875,0.3284912109375,-0.158935546875,45,30,-220,2.7439024390243905,1.829268292682927,-13.414634146341465,115.81932052506973,-69.8409845302399
2025-08-25T16:44:35.452132+03:00,1756129475.452120,0.070252,2,True,16500,5350,-3768,1.007080078125,0.3265380859375,-0.22998046875,-60,22,-204,-3.658536585365854,1.3414634146341464,-12.439024390243903,125.15699883483727,-68.36725001260115
2025-08-25T16:44:35.522317+03:00,1756129475.522306,0.070186,1,True,16090,5568,-2526,0.9820556640625,0.33984375,-0.1541748046875,8,18,-216,0.48780487804878053,1.0975609756097562,-13.170731707317074,114.40207348648586,-69.19324392632724
2025-08-25T16:44:35.522317+03:00,1756129475.522306,0.070186,2,True,16278,5650,-3538,0.9935302734375,0.3448486328125,-0.2159423828125,-78,16,-183,-4.75609756097561,0.9756097560975611,-11.158536585365855,122.05457781781736,-67.72942790310803
2025-08-25T16:44:35.592464+03:00,1756129475.592453,0.070148,1,True,15964,5698,-2492,0.974365234375,0.3477783203125,-0.152099609375,19,21,-177,1.1585365853658538,1.2804878048780488,-10.792682926829269,113.6219905397945,-68.71557307255281
2025-08-25T16:44:35.592464+03:00,1756129475.592453,0.070148,2,True,16224,5624,-3628,0.990234375,0.34326171875,-0.221435546875,-72,15,-132,-4.390243902439025,0.9146341463414634,-8.048780487804878,122.82575515109744,-67.58305275803933
2025-08-25T16:44:35.662608+03:00,1756129475.662597,0.070143,1,True,16026,5836,-2542,0.9781494140625,0.356201171875,-0.1551513671875,10,14,-136,0.6097560975609757,0.853658536585366,-8.292682926829269,113.5366060076593,-68.3368474930376
2025-08-25T16:44:35.662608+03:00,1756129475.662597,0.070143,2,True,16256,5790,-3496,0.9921875,0.3533935546875,-0.21337890625,-79,9,-101,-4.817073170731708,0.5487804878048781,-6.158536585365854,121.12356289338051,-67.40940889604688
2025-08-25T16:44:35.732682+03:00,1756129475.732671,0.070075,1,True,15896,6106,-2484,0.97021484375,0.3726806640625,-0.151611328125,21,20,-104,1.2804878048780488,1.2195121951219514,-6.341463414634147,112.13712762017582,-67.47665950324786
2025-08-25T16:44:35.732682+03:00,1756129475.732671,0.070075,2,True,16248,6022,-3428,0.99169921875,0.3675537109375,-0.209228515625,-58,20,-78,-3.536585365853659,1.2195121951219514,-4.75609756097561,119.6505249178452,-66.90305838254551
2025-08-25T16:44:35.802893+03:00,1756129475.802881,0.070210,1,True,15998,6240,-2468,0.9764404296875,0.380859375,-0.150634765625,50,31,-110,3.048780487804878,1.8902439024390245,-6.707317073170732,111.57943048329307,-67.24445893452638
2025-08-25T16:44:35.802893+03:00,1756129475.802881,0.070210,2,True,16396,6304,-3366,1.000732421875,0.384765625,-0.2054443359375,-26,33,-115,-1.5853658536585367,2.0121951219512195,-7.01219512195122,118.09983882501007,-66.4495577177367
2025-08-25T16:44:35.873074+03:00,1756129475.873062,0.070180,1,True,15934,6684,-2436,0.9725341796875,0.407958984375,-0.148681640625,101,56,-189,6.158536585365854,3.414634146341464,-11.52439024390244,110.02439009032106,-65.94062769653532
2025-08-25T16:44:35.873074+03:00,1756129475.873062,0.070180,2,True,16320,6580,-3390,0.99609375,0.401611328125,-0.2069091796875,33,65,-200,2.0121951219512195,3.963414634146342,-12.195121951219512,117.257411733193,-65.6033617056811
2025-08-25T16:44:35.943207+03:00,1756129475.943195,0.070134,1,True,15966,6570,-2508,0.9744873046875,0.4010009765625,-0.153076171875,109,61,-272,6.646341463414635,3.7195121951219514,-16.585365853658537,110.89361204404051,-66.22831289165703
2025-08-25T16:44:35.943207+03:00,1756129475.943195,0.070134,2,True,16348,6422,-3920,0.997802734375,0.3919677734375,-0.2392578125,-21,44,-272,-1.2804878048780488,2.682926829268293,-16.585365853658537,121.39996204264418,-65.28663257757013
2025-08-25T16:44:36.013380+03:00,1756129476.013368,0.070173,1,True,15640,6736,-2684,0.95458984375,0.4111328125,-0.163818359375,12,17,-319,0.7317073170731708,1.0365853658536586,-19.451219512195124,111.72510728655149,-65.12655283127299
2025-08-25T16:44:36.013380+03:00,1756129476.013368,0.070173,2,True,15824,6720,-3760,0.9658203125,0.41015625,-0.2294921875,-115,4,-292,-7.01219512195122,0.24390243902439027,-17.804878048780488,119.22805004309198,-64.05118218465203
2025-08-25T16:44:36.083688+03:00,1756129476.083675,0.070307,1,True,15376,6870,-2636,0.9384765625,0.4193115234375,-0.160888671875,-56,-12,-275,-3.414634146341464,-0.7317073170731708,-16.76829268292683,110.99166817049489,-64.42603555825842
2025-08-25T16:44:36.083688+03:00,1756129476.083675,0.070307,2,True,15410,6702,-3914,0.9405517578125,0.4090576171875,-0.2388916015625,-173,-37,-210,-10.548780487804878,-2.25609756097561,-12.80487804878049,120.28513042790136,-63.26803128884655
2025-08-25T16:44:36.154089+03:00,1756129476.154075,0.070400,1,True,15134,7338,-2366,0.9237060546875,0.4478759765625,-0.1444091796875,-101,-40,-162,-6.158536585365854,-2.439024390243903,-9.878048780487806,107.8709379602961,-63.00346055047455
2025-08-25T16:44:36.154089+03:00,1756129476.154075,0.070400,2,True,14906,7392,-3066,0.9097900390625,0.451171875,-0.1871337890625,-160,-34,-88,-9.756097560975611,-2.073170731707317,-5.365853658536586,112.5273387628322,-61.76985804017161
2025-08-25T16:44:36.224390+03:00,1756129476.224377,0.070303,1,True,14946,7558,-2302,0.9122314453125,0.4613037109375,-0.1405029296875,-5,3,-3,-0.30487804878048785,0.1829268292682927,-0.1829268292682927,106.93957693127584,-62.138050651979945
2025-08-25T16:44:36.224390+03:00,1756129476.224377,0.070303,2,True,15560,7346,-3422,0.94970703125,0.4483642578125,-0.2088623046875,-78,2,45,-4.75609756097561,0.12195121951219513,2.7439024390243905,114.97759647873343,-62.48866070639142
2025-08-25T16:44:36.294624+03:00,1756129476.294612,0.070235,1,True,15602,7420,-2584,0.9522705078125,0.452880859375,-0.15771484375,254,4,-10,15.487804878048783,0.24390243902439027,-0.6097560975609757,109.20056721593194,-63.27047577196613
2025-08-25T16:44:36.294624+03:00,1756129476.294612,0.070235,2,True,16070,7322,-3528,0.9808349609375,0.4468994140625,-0.21533203125,-104,-9,-29,-6.341463414634147,-0.5487804878048781,-1.7682926829268295,115.72641907972819,-63.17133074784919
2025-08-25T16:44:36.364736+03:00,1756129476.364725,0.070113,1,True,15290,7656,-2360,0.9332275390625,0.46728515625,-0.14404296875,-11,2,-73,-0.6707317073170732,0.12195121951219513,-4.451219512195122,107.13217226736307,-62.346848964659046
2025-08-25T16:44:36.364736+03:00,1756129476.364725,0.070113,2,True,15874,7568,-3302,0.9688720703125,0.4619140625,-0.2015380859375,-88,5,-72,-5.365853658536586,0.30487804878048785,-4.390243902439025,113.57216042090133,-62.51844613531389
2025-08-25T16:44:36.434877+03:00,1756129476.434865,0.070140,1,True,15272,7798,-2424,0.93212890625,0.4759521484375,-0.14794921875,16,18,-126,0.9756097560975611,1.0975609756097562,-7.682926829268293,107.26779972485083,-61.86622052789222
2025-08-25T16:44:36.434877+03:00,1756129476.434865,0.070140,2,True,15676,7710,-3434,0.956787109375,0.4705810546875,-0.2095947265625,-73,15,-134,-4.451219512195122,0.9146341463414634,-8.170731707317074,114.00797858823168,-61.701379397082206
2025-08-25T16:44:36.505048+03:00,1756129476.505037,0.070172,1,True,15236,7784,-2424,0.929931640625,0.47509765625,-0.14794921875,14,18,-177,0.853658536585366,1.0975609756097562,-10.792682926829269,107.297005544726,-61.84902311130051
2025-08-25T16:44:36.505048+03:00,1756129476.505037,0.070172,2,True,15356,7752,-3314,0.937255859375,0.47314453125,-0.2022705078125,-65,22,-156,-3.963414634146342,1.3414634146341464,-9.51219512195122,113.14683101951515,-61.23258142473499
2025-08-25T16:44:36.575188+03:00,1756129476.575177,0.070141,1,True,15040,7912,-2406,0.91796875,0.48291015625,-0.1468505859375,41,34,-168,2.5,2.073170731707317,-10.24390243902439,106.9142549861056,-61.19581924117724
2025-08-25T16:44:36.575188+03:00,1756129476.575177,0.070141,2,True,15342,7840,-3564,0.9364013671875,0.478515625,-0.217529296875,-45,33,-138,-2.7439024390243905,2.0121951219512195,-8.414634146341465,114.4461553697724,-60.69279117181696
2025-08-25T16:44:36.645349+03:00,1756129476.645338,0.070160,1,True,15094,7956,-2490,0.9212646484375,0.485595703125,-0.1519775390625,34,29,-171,2.073170731707317,1.7682926829268295,-10.426829268292684,107.37862288897541,-61.08774470260156
2025-08-25T16:44:36.645349+03:00,1756129476.645338,0.070160,2,True,15420,7938,-3514,0.941162109375,0.4844970703125,-0.2144775390625,-69,19,-155,-4.207317073170732,1.1585365853658538,-9.451219512195122,113.87804936015996,-60.62174046059115
2025-08-25T16:44:36.715622+03:00,1756129476.715610,0.070272,1,True,14860,8180,-2492,0.906982421875,0.499267578125,-0.152099609375,12,19,-169,0.7317073170731708,1.1585365853658538,-10.30487804878049,106.94311842838412,-60.08178104309143
2025-08-25T16:44:36.715622+03:00,1756129476.715610,0.070272,2,True,15196,8168,-3468,0.927490234375,0.49853515625,-0.211669921875,-82,12,-148,-5.0,0.7317073170731708,-9.02439024390244,113.00528613559565,-59.71710845891639
2025-08-25T16:44:36.785840+03:00,1756129476.785828,0.070219,1,True,14798,8324,-2394,0.9031982421875,0.508056640625,-0.1461181640625,1,13,-165,0.06097560975609757,0.7926829268292683,-10.060975609756099,106.04534551381296,-59.659123546927646
2025-08-25T16:44:36.785840+03:00,1756129476.785828,0.070219,2,True,15100,8306,-3460,0.921630859375,0.5069580078125,-0.211181640625,-93,6,-138,-5.670731707317073,0.3658536585365854,-8.414634146341465,112.61496490598506,-59.209967635115596
2025-08-25T16:44:36.856024+03:00,1756129476.856014,0.070185,1,True,14756,8536,-2344,0.900634765625,0.52099609375,-0.14306640625,-5,10,-165,-0.30487804878048785,0.6097560975609757,-10.060975609756099,105.35503029862927,-59.040854708548416
2025-08-25T16:44:36.856024+03:00,1756129476.856014,0.070185,2,True,15118,8582,-3326,0.9227294921875,0.5238037109375,-0.2030029296875,-85,12,-159,-5.182926829268293,0.7317073170731708,-9.695121951219512,111.18410489361007,-58.666589713376744
2025-08-25T16:44:36.926263+03:00,1756129476.926251,0.070238,1,True,14726,8690,-2382,0.8988037109375,0.5303955078125,-0.1453857421875,12,21,-211,0.7317073170731708,1.2804878048780488,-12.865853658536587,105.32873327133467,-58.5383526002067
2025-08-25T16:44:36.926263+03:00,1756129476.926251,0.070238,2,True,14908,8736,-3334,0.909912109375,0.533203125,-0.2034912109375,-69,24,-197,-4.207317073170732,1.4634146341463417,-12.01219512195122,110.88881279489084,-57.903297260223454
2025-08-25T16:44:36.996402+03:00,1756129476.996391,0.070139,1,True,14438,8926,-2392,0.8812255859375,0.5447998046875,-0.14599609375,30,35,-219,1.829268292682927,2.1341463414634148,-13.353658536585368,105.00170821859045,-57.37898500544308
2025-08-25T16:44:36.996402+03:00,1756129476.996391,0.070139,2,True,14770,8780,-3446,0.9014892578125,0.535888671875,-0.2103271484375,-60,30,-194,-3.658536585365854,1.829268292682927,-11.829268292682928,111.4291573325205,-57.43793284795998
2025-08-25T16:44:37.066680+03:00,1756129477.066668,0.070277,1,True,14332,8834,-2516,0.874755859375,0.5391845703125,-0.153564453125,3,17,-193,0.1829268292682927,1.0365853658536586,-11.76829268292683,105.89741211517007,-57.34440040235487
2025-08-25T16:44:37.066680+03:00,1756129477.066668,0.070277,2,True,14346,8672,-3636,0.8756103515625,0.529296875,-0.221923828125,-112,-10,-125,-6.829268292682928,-0.6097560975609757,-7.621951219512196,112.74734937806366,-56.75626148692864
2025-08-25T16:44:37.137046+03:00,1756129477.137033,0.070366,1,True,13946,9136,-2124,0.8511962890625,0.5576171875,-0.129638671875,-25,-13,-53,-1.524390243902439,-0.7926829268292683,-3.231707317073171,103.0880171681494,-56.076431729103625
2025-08-25T16:44:37.137046+03:00,1756129477.137033,0.070366,2,True,13964,9228,-2836,0.852294921875,0.563232421875,-0.173095703125,-68,6,38,-4.146341463414634,0.3658536585365854,2.3170731707317076,107.08352801950457,-55.34210735468729
2025-08-25T16:44:37.207217+03:00,1756129477.207206,0.070173,1,True,14044,9280,-2212,0.857177734375,0.56640625,-0.135009765625,83,50,79,5.060975609756098,3.048780487804878,4.817073170731708,103.4069633315794,-55.812017865858884
2025-08-25T16:44:37.207217+03:00,1756129477.207206,0.070173,2,True,14468,9024,-3262,0.883056640625,0.55078125,-0.1990966796875,7,51,129,0.426829268292683,3.1097560975609757,7.865853658536586,109.87393315989284,-56.44683217912717
2025-08-25T16:44:37.277446+03:00,1756129477.277435,0.070229,1,True,14472,9064,-2366,0.88330078125,0.55322265625,-0.1444091796875,108,66,97,6.585365853658537,4.024390243902439,5.914634146341464,104.6296210255199,-57.08505134398794
2025-08-25T16:44:37.277446+03:00,1756129477.277435,0.070229,2,True,14752,8802,-3424,0.900390625,0.5372314453125,-0.208984375,17,65,118,1.0365853658536586,3.963414634146342,7.195121951219513,111.25615779887923,-57.37182638588567
2025-08-25T16:44:37.347688+03:00,1756129477.347677,0.070242,1,True,14702,8690,-2654,0.8973388671875,0.5303955078125,-0.1619873046875,65,47,83,3.963414634146342,2.8658536585365857,5.060975609756098,106.98311590330442,-58.28278543842979
2025-08-25T16:44:37.347688+03:00,1756129477.347677,0.070242,2,True,15150,8666,-3548,0.9246826171875,0.5289306640625,-0.216552734375,-60,12,89,-3.658536585365854,0.7317073170731708,5.426829268292684,112.26498140806441,-58.27988474861805
2025-08-25T16:44:37.417873+03:00,1756129477.417860,0.070183,1,True,15014,8724,-2570,0.9163818359375,0.532470703125,-0.1568603515625,-7,-5,2,-0.426829268292683,-0.30487804878048785,0.12195121951219513,106.41442542204565,-58.79477441375036
2025-08-25T16:44:37.417873+03:00,1756129477.417860,0.070183,2,True,15222,8772,-3716,0.9290771484375,0.535400390625,-0.226806640625,-134,-43,-89,-8.170731707317074,-2.6219512195121952,-5.426829268292684,112.95851517951813,-57.95977232674541
2025-08-25T16:44:37.488052+03:00,1756129477.488041,0.070181,1,True,14178,9076,-2008,0.8653564453125,0.553955078125,-0.12255859375,0,8,-66,0.0,0.48780487804878053,-4.024390243902439,102.47532111656899,-56.75008375330612
2025-08-25T16:44:37.488052+03:00,1756129477.488041,0.070181,2,True,14672,8752,-3388,0.8955078125,0.5341796875,-0.206787109375,-54,25,-35,-3.2926829268292686,1.524390243902439,-2.1341463414634148,111.16199268194129,-57.39515311435356
2025-08-25T16:44:37.558229+03:00,1756129477.558218,0.070177,1,True,14634,8898,-2390,0.8931884765625,0.5430908203125,-0.1458740234375,26,20,-69,1.5853658536585367,1.2195121951219514,-4.207317073170732,105.03476651512166,-57.80598326860709
2025-08-25T16:44:37.558229+03:00,1756129477.558218,0.070177,2,True,14948,9008,-2898,0.912353515625,0.5498046875,-0.1768798828125,-43,27,-76,-2.6219512195121952,1.6463414634146343,-4.634146341463415,107.83371007458582,-57.66453529307051
2025-08-25T16:44:37.628321+03:00,1756129477.628311,0.070092,1,True,13866,9202,-2182,0.8463134765625,0.5616455078125,-0.1331787109375,108,81,-64,6.585365853658537,4.939024390243903,-3.9024390243902443,103.33973344229794,-55.70445790688419
2025-08-25T16:44:37.628321+03:00,1756129477.628311,0.070092,2,True,14268,8678,-3860,0.870849609375,0.5296630859375,-0.235595703125,7,63,29,0.426829268292683,3.8414634146341466,1.7682926829268295,113.97963754813397,-56.34956186771737
2025-08-25T16:44:37.698467+03:00,1756129477.698455,0.070145,1,True,14346,8526,-3004,0.8756103515625,0.5203857421875,-0.183349609375,-9,-6,91,-0.5487804878048781,-0.3658536585365854,5.548780487804878,109.40909394326405,-57.784072424594385
2025-08-25T16:44:37.698467+03:00,1756129477.698455,0.070145,2,True,14314,8354,-4616,0.8736572265625,0.5098876953125,-0.28173828125,-210,-118,180,-12.80487804878049,-7.195121951219513,10.975609756097562,118.92282902354818,-56.30495423168891
2025-08-25T16:44:37.768642+03:00,1756129477.768631,0.070176,1,True,14546,8600,-2532,0.8878173828125,0.52490234375,-0.154541015625,-265,-172,245,-16.158536585365855,-10.487804878048781,14.939024390243905,106.40540804682576,-58.35364595849186
2025-08-25T16:44:37.768642+03:00,1756129477.768631,0.070176,2,True,15704,8664,-2912,0.95849609375,0.52880859375,-0.177734375,-351,-179,193,-21.402439024390247,-10.914634146341465,11.76829268292683,108.5776708537486,-59.79910120389226
2025-08-25T16:44:37.838827+03:00,1756129477.838816,0.070184,1,True,14934,8858,-1928,0.9114990234375,0.5406494140625,-0.11767578125,-176,-101,36,-10.731707317073171,-6.158536585365854,2.1951219512195124,102.27927232771326,-58.74097301682661
2025-08-25T16:44:37.838827+03:00,1756129477.838816,0.070184,2,True,15118,8840,-2562,0.9227294921875,0.53955078125,-0.1563720703125,-184,-63,1,-11.219512195121952,-3.8414634146341466,0.06097560975609757,106.1625910672717,-58.66712386699187
2025-08-25T16:44:37.909080+03:00,1756129477.909068,0.070253,1,True,14326,8830,-2180,0.8743896484375,0.5389404296875,-0.133056640625,-10,-4,-23,-0.6097560975609757,-0.24390243902439027,-1.402439024390244,103.86817467478811,-57.5898244444385
2025-08-25T16:44:37.909080+03:00,1756129477.909068,0.070253,2,True,14168,8660,-3174,0.86474609375,0.528564453125,-0.1937255859375,-76,1,61,-4.634146341463415,0.06097560975609757,3.7195121951219514,110.12852521478884,-56.93597044946659
2025-08-25T16:44:37.979227+03:00,1756129477.979216,0.070147,1,True,14704,8584,-2392,0.8974609375,0.52392578125,-0.14599609375,40,23,88,2.439024390243903,1.402439024390244,5.365853658536586,105.57091733179095,-58.7829366524218
2025-08-25T16:44:37.979227+03:00,1756129477.979216,0.070147,2,True,15090,8348,-3626,0.9210205078125,0.509521484375,-0.2213134765625,-59,4,100,-3.5975609756097566,0.24390243902439027,6.097560975609756,113.47798132399654,-58.90386235235739
2025-08-25T16:44:38.049488+03:00,1756129478.049477,0.070262,1,True,14624,8392,-2506,0.892578125,0.51220703125,-0.1529541015625,-4,-3,79,-0.24390243902439027,-0.1829268292682927,4.817073170731708,106.62655604929591,-59.08299522951652
2025-08-25T16:44:38.049488+03:00,1756129478.049477,0.070262,2,True,15452,8338,-3370,0.943115234375,0.5089111328125,-0.2056884765625,-101,-17,67,-6.158536585365854,-1.0365853658536586,4.085365853658537,112.00725991568625,-59.7999865390316
2025-08-25T16:44:38.119753+03:00,1756129478.119740,0.070263,1,True,15134,8448,-2396,0.9237060546875,0.515625,-0.146240234375,3,5,-24,0.1829268292682927,0.30487804878048785,-1.4634146341463417,105.8342587533374,-59.876400850740524
2025-08-25T16:44:38.119753+03:00,1756129478.119740,0.070263,2,True,15490,8350,-3386,0.9454345703125,0.5096435546875,-0.2066650390625,-81,3,-44,-4.939024390243903,0.1829268292682927,-2.682926829268293,112.07299441545364,-59.81377395302272
2025-08-25T16:44:38.190549+03:00,1756129478.190534,0.070794,1,True,14778,8486,-2388,0.9019775390625,0.5179443359375,-0.145751953125,14,14,-80,0.853658536585366,0.853658536585366,-4.878048780487806,105.71684795794411,-59.182437328645605
2025-08-25T16:44:38.190549+03:00,1756129478.190534,0.070794,2,True,14856,8414,-3386,0.90673828125,0.5135498046875,-0.2066650390625,-74,9,-46,-4.51219512195122,0.5487804878048781,-2.804878048780488,111.92106211931976,-58.595474464021834
2025-08-25T16:44:38.260792+03:00,1756129478.260781,0.070246,1,True,14610,8534,-2388,0.8917236328125,0.5208740234375,-0.145751953125,19,15,-35,1.1585365853658538,0.9146341463414634,-2.1341463414634148,105.63278123030148,-58.76076110081761
2025-08-25T16:44:38.260792+03:00,1756129478.260781,0.070246,2,True,14722,8450,-3392,0.8985595703125,0.5157470703125,-0.20703125,-69,8,15,-4.207317073170732,0.48780487804878053,0.9146341463414634,111.8715171185325,-58.26367243411556
2025-08-25T16:44:38.331007+03:00,1756129478.330997,0.070216,1,True,14824,8524,-2372,0.90478515625,0.520263671875,-0.144775390625,23,17,-1,1.402439024390244,1.0365853658536586,-0.06097560975609757,105.55045347492185,-59.16863697090798
2025-08-25T16:44:38.331007+03:00,1756129478.330997,0.070216,2,True,15028,8566,-3068,0.917236328125,0.5228271484375,-0.187255859375,-51,24,6,-3.1097560975609757,1.4634146341463417,0.3658536585365854,109.70549964596445,-58.80679284996852
2025-08-25T16:44:38.401162+03:00,1756129478.401150,0.070154,1,True,14752,8598,-2258,0.900390625,0.5247802734375,-0.1378173828125,99,64,-29,6.036585365853659,3.9024390243902443,-1.7682926829268295,104.71469217009734,-58.92683590387338
2025-08-25T16:44:38.401162+03:00,1756129478.401150,0.070154,2,True,15198,8524,-3176,0.9276123046875,0.520263671875,-0.19384765625,29,71,-21,1.7682926829268295,4.329268292682928,-1.2804878048780488,110.43514158248715,-59.09821470947634
2025-08-25T16:44:38.471328+03:00,1756129478.471317,0.070166,1,True,14780,8622,-2286,0.902099609375,0.5262451171875,-0.1395263671875,156,101,-76,9.51219512195122,6.158536585365854,-4.634146341463415,104.84948997165796,-58.888524546726444
2025-08-25T16:44:38.471328+03:00,1756129478.471317,0.070166,2,True,14986,8572,-3220,0.9146728515625,0.523193359375,-0.196533203125,85,109,-53,5.182926829268293,6.646341463414635,-3.231707317073171,110.58826665411787,-58.57399246206009
2025-08-25T16:44:38.541565+03:00,1756129478.541553,0.070237,1,True,14834,8634,-2432,0.9053955078125,0.5269775390625,-0.1484375,187,121,-108,11.402439024390246,7.378048780487806,-6.585365853658537,105.7313103419391,-58.83903484218867
2025-08-25T16:44:38.541565+03:00,1756129478.541553,0.070237,2,True,15394,8458,-3658,0.9395751953125,0.5162353515625,-0.2232666015625,77,108,-108,4.695121951219512,6.585365853658537,-6.585365853658537,113.38799555228671,-59.09447237693019
2025-08-25T16:44:38.611766+03:00,1756129478.611757,0.070203,1,True,14646,8646,-2542,0.8939208984375,0.5277099609375,-0.1551513671875,136,94,-170,8.292682926829269,5.731707317073171,-10.365853658536587,106.38379801002911,-58.39528363278996
2025-08-25T16:44:38.611766+03:00,1756129478.611757,0.070203,2,True,14982,8592,-3592,0.9144287109375,0.5244140625,-0.21923828125,18,78,-150,1.0975609756097562,4.75609756097561,-9.146341463414634,112.688013786247,-58.13543691912493
2025-08-25T16:44:38.681916+03:00,1756129478.681906,0.070149,1,True,14480,9000,-2382,0.8837890625,0.54931640625,-0.1453857421875,95,74,-188,5.7926829268292686,4.51219512195122,-11.463414634146343,104.82437851498712,-57.261100420688216
2025-08-25T16:44:38.681916+03:00,1756129478.681906,0.070149,2,True,14912,8978,-3330,0.91015625,0.5479736328125,-0.2032470703125,10,79,-182,0.6097560975609757,4.817073170731708,-11.097560975609756,110.35015098944093,-57.29365344055025
2025-08-25T16:44:38.752122+03:00,1756129478.752112,0.070206,1,True,14406,9066,-2478,0.8792724609375,0.5533447265625,-0.1512451171875,96,77,-228,5.853658536585367,4.695121951219512,-13.902439024390246,105.28719752546448,-56.879344339045474
2025-08-25T16:44:38.752122+03:00,1756129478.752112,0.070206,2,True,14792,9080,-3420,0.90283203125,0.55419921875,-0.208740234375,-2,71,-213,-0.12195121951219513,4.329268292682928,-12.987804878048781,110.63898059439886,-56.73737408188993
2025-08-25T16:44:38.822357+03:00,1756129478.822346,0.070235,1,True,14324,9128,-2412,0.874267578125,0.55712890625,-0.147216796875,80,69,-249,4.878048780487806,4.207317073170732,-15.182926829268293,104.80163161065398,-56.610144551863925
2025-08-25T16:44:38.822357+03:00,1756129478.822346,0.070235,2,True,14348,8994,-3554,0.875732421875,0.5489501953125,-0.2169189453125,-26,55,-196,-1.5853658536585367,3.353658536585366,-11.951219512195124,111.56156733483427,-56.01954971397948
2025-08-25T16:44:38.892477+03:00,1756129478.892466,0.070120,1,True,14206,9316,-2302,0.8670654296875,0.568603515625,-0.1405029296875,31,33,-188,1.8902439024390245,2.0121951219512195,-11.463414634146343,103.87984670507427,-55.96084189573518
2025-08-25T16:44:38.892477+03:00,1756129478.892466,0.070120,2,True,14404,9382,-3200,0.879150390625,0.5726318359375,-0.1953125,-56,33,-166,-3.414634146341464,2.0121951219512195,-10.121951219512196,108.83341191861754,-55.464567790471975
2025-08-25T16:44:38.962698+03:00,1756129478.962686,0.070220,1,True,14142,9514,-2286,0.8631591796875,0.5806884765625,-0.1395263671875,35,37,-204,2.1341463414634148,2.25609756097561,-12.439024390243903,103.51076355668124,-55.32082042824944
2025-08-25T16:44:38.962698+03:00,1756129478.962686,0.070220,2,True,14394,9506,-3302,0.8785400390625,0.5802001953125,-0.2015380859375,-63,28,-196,-3.8414634146341466,1.707317073170732,-11.951219512195124,109.15515779095934,-55.04175384219902
2025-08-25T16:44:39.032890+03:00,1756129479.032879,0.070193,1,True,13970,9742,-2270,0.8526611328125,0.5946044921875,-0.1385498046875,28,36,-232,1.707317073170732,2.1951219512195124,-14.146341463414636,103.11654280132196,-54.39610803949334
2025-08-25T16:44:39.032890+03:00,1756129479.032879,0.070193,2,True,13988,9706,-3256,0.853759765625,0.5924072265625,-0.19873046875,-54,40,-205,-3.2926829268292686,2.439024390243903,-12.500000000000002,108.54467508431523,-53.80024431545412
2025-08-25T16:44:39.103191+03:00,1756129479.103178,0.070299,1,True,13492,9836,-2302,0.823486328125,0.600341796875,-0.1405029296875,65,60,-179,3.963414634146342,3.658536585365854,-10.914634146341465,103.17231677448929,-53.17691267956287
2025-08-25T16:44:39.103191+03:00,1756129479.103178,0.070299,2,True,14048,9612,-3650,0.857421875,0.586669921875,-0.2227783203125,-20,61,-106,-1.2195121951219514,3.7195121951219514,-6.463414634146342,110.79345374449177,-53.7997252378326
2025-08-25T16:44:39.173450+03:00,1756129479.173438,0.070261,1,True,13878,9786,-2428,0.8470458984375,0.5972900390625,-0.148193359375,26,29,-130,1.5853658536585367,1.7682926829268295,-7.926829268292684,103.93425289584233,-54.000675295521035
2025-08-25T16:44:39.173450+03:00,1756129479.173438,0.070261,2,True,14040,9792,-3108,0.85693359375,0.59765625,-0.189697265625,-61,27,-118,-3.7195121951219514,1.6463414634146343,-7.195121951219513,107.60953860525898,-53.806159133431066
2025-08-25T16:44:39.243671+03:00,1756129479.243660,0.070222,1,True,13294,10318,-2128,0.8114013671875,0.6297607421875,-0.1298828125,66,60,-130,4.024390243902439,3.658536585365854,-7.926829268292684,101.65337290400704,-51.604072530627
2025-08-25T16:44:39.243671+03:00,1756129479.243660,0.070222,2,True,13934,10212,-3090,0.8504638671875,0.623291015625,-0.1885986328125,0,73,-105,0.0,4.451219512195122,-6.402439024390245,106.83503620654245,-52.5587362910328
2025-08-25T16:44:39.313824+03:00,1756129479.313808,0.070148,1,True,13642,10112,-2456,0.8326416015625,0.6171875,-0.14990234375,66,46,-159,4.024390243902439,2.804878048780488,-9.695121951219512,103.65164045819536,-52.66396863219791
2025-08-25T16:44:39.313824+03:00,1756129479.313808,0.070148,2,True,13468,10238,-3344,0.822021484375,0.6248779296875,-0.2041015625,-45,33,-114,-2.7439024390243905,2.0121951219512195,-6.951219512195123,108.08839748948274,-51.35087407381956
2025-08-25T16:44:39.384297+03:00,1756129479.384283,0.070475,1,True,13278,10332,-2370,0.8104248046875,0.630615234375,-0.1446533203125,34,30,-95,2.073170731707317,1.829268292682927,-5.7926829268292686,102.91926119390004,-51.398291679176026
2025-08-25T16:44:39.384297+03:00,1756129479.384283,0.070475,2,True,13338,10304,-3332,0.8140869140625,0.62890625,-0.203369140625,-67,13,-32,-4.085365853658537,0.7926829268292683,-1.9512195121951221,107.91962692298557,-50.92628566169423
2025-08-25T16:44:39.454585+03:00,1756129479.454572,0.070288,1,True,13022,10410,-2378,0.7947998046875,0.6353759765625,-0.1451416015625,11,10,7,0.6707317073170732,0.6097560975609757,0.426829268292683,102.86752735052478,-50.64794527112922
2025-08-25T16:44:39.454585+03:00,1756129479.454572,0.070288,2,True,13504,10222,-3516,0.82421875,0.6239013671875,-0.214599609375,-99,-19,62,-6.036585365853659,-1.1585365853658538,3.780487804878049,108.98137087165354,-51.323148247388836
2025-08-25T16:44:39.524750+03:00,1756129479.524739,0.070167,1,True,13396,10244,-2362,0.817626953125,0.625244140625,-0.1441650390625,-37,-37,62,-2.25609756097561,-2.25609756097561,3.780487804878049,102.98399407920608,-51.87623251910933
2025-08-25T16:44:39.524750+03:00,1756129479.524739,0.070167,2,True,13894,10166,-3376,0.8480224609375,0.6204833984375,-0.2060546875,-137,-59,81,-8.353658536585366,-3.5975609756097566,4.939024390243903,108.37067246909632,-52.36872749034856
2025-08-25T16:44:39.594880+03:00,1756129479.594869,0.070130,1,True,13866,10256,-2310,0.8463134765625,0.6259765625,-0.1409912109375,-48,-42,-16,-2.9268292682926833,-2.5609756097560976,-0.9756097560975611,102.69314290378885,-52.83131406960096
2025-08-25T16:44:39.594880+03:00,1756129479.594869,0.070130,2,True,14170,10136,-3376,0.8648681640625,0.61865234375,-0.2060546875,-142,-50,-53,-8.658536585365855,-3.048780487804878,-3.231707317073171,108.42137954158437,-52.98561559736313
2025-08-25T16:44:39.665047+03:00,1756129479.665035,0.070167,1,True,13384,10372,-2310,0.81689453125,0.633056640625,-0.1409912109375,-60,-44,-90,-3.658536585365854,-2.682926829268293,-5.487804878048781,102.55570879470132,-51.552454414562405
2025-08-25T16:44:39.665047+03:00,1756129479.665035,0.070167,2,True,13744,10296,-3186,0.8388671875,0.62841796875,-0.1944580078125,-149,-53,-77,-9.085365853658537,-3.231707317073171,-4.695121951219512,107.19418655608777,-51.89741936194523
2025-08-25T16:44:39.735240+03:00,1756129479.735229,0.070194,1,True,13370,10408,-2308,0.8160400390625,0.63525390625,-0.140869140625,-47,-38,-102,-2.8658536585365857,-2.3170731707317076,-6.219512195121951,102.50315681905691,-51.43220592359229
2025-08-25T16:44:39.735240+03:00,1756129479.735229,0.070194,2,True,13794,10300,-3430,0.8419189453125,0.628662109375,-0.2093505859375,-142,-44,-93,-8.658536585365855,-2.682926829268293,-5.670731707317073,108.41825738412827,-51.796685021856035
2025-08-25T16:44:39.805459+03:00,1756129479.805449,0.070219,1,True,13334,10580,-2184,0.8138427734375,0.645751953125,-0.13330078125,-60,-45,-126,-3.658536585365854,-2.7439024390243905,-7.682926829268293,101.66357833131822,-50.98597068302455
2025-08-25T16:44:39.805459+03:00,1756129479.805449,0.070219,2,True,13354,10592,-3028,0.8150634765625,0.646484375,-0.184814453125,-129,-35,-104,-7.865853658536586,-2.1341463414634148,-6.341463414634147,105.95396714693588,-50.47923838041413
2025-08-25T16:44:39.875674+03:00,1756129479.875664,0.070215,1,True,13088,10662,-2224,0.798828125,0.6507568359375,-0.1357421875,-25,-18,-105,-1.524390243902439,-1.0975609756097562,-6.402439024390245,101.78244988702775,-50.23367657737882
2025-08-25T16:44:39.875674+03:00,1756129479.875664,0.070215,2,True,13216,10684,-2826,0.806640625,0.652099609375,-0.1724853515625,-91,-4,-73,-5.548780487804878,-0.24390243902439027,-4.451219512195122,104.81586496781806,-50.09709054922581
2025-08-25T16:44:39.945819+03:00,1756129479.945809,0.070144,1,True,12974,10794,-2176,0.7918701171875,0.6588134765625,-0.1328125,22,24,-66,1.3414634146341464,1.4634146341463417,-4.024390243902439,101.39769193075958,-49.678435620811115
2025-08-25T16:44:39.945819+03:00,1756129479.945809,0.070144,2,True,13350,10586,-3318,0.8148193359375,0.6461181640625,-0.2025146484375,-63,19,-36,-3.8414634146341466,1.1585365853658538,-2.1951219512195124,107.40270241975534,-50.273530832805804
2025-08-25T16:44:40.016003+03:00,1756129480.015991,0.070182,1,True,13000,10754,-2260,0.79345703125,0.6563720703125,-0.137939453125,22,18,-25,1.3414634146341464,1.0975609756097562,-1.524390243902439,101.8682479206883,-49.79213994371419
2025-08-25T16:44:40.016003+03:00,1756129480.015991,0.070182,2,True,13220,10650,-3234,0.806884765625,0.6500244140625,-0.1973876953125,-68,3,19,-4.146341463414634,0.1829268292682927,1.1585365853658538,106.89153930778441,-49.90526913225338
2025-08-25T16:44:40.086228+03:00,1756129480.086215,0.070224,1,True,13000,10648,-2334,0.79345703125,0.64990234375,-0.1424560546875,15,0,32,0.9146341463414634,0.0,1.9512195121951221,102.36347543167018,-50.01938762966534
2025-08-25T16:44:40.086228+03:00,1756129480.086215,0.070224,2,True,13528,10468,-3528,0.82568359375,0.638916015625,-0.21533203125,-92,-24,64,-5.609756097560976,-1.4634146341463417,3.9024390243902443,108.62521063224301,-50.76603038451606
2025-08-25T16:44:40.156514+03:00,1756129480.156501,0.070287,1,True,13188,10618,-2344,0.804931640625,0.6480712890625,-0.14306640625,-33,-43,51,-2.0121951219512195,-2.6219512195121952,3.1097560975609757,102.44879207233504,-50.49404616504591
2025-08-25T16:44:40.156514+03:00,1756129480.156501,0.070287,2,True,13618,10574,-3034,0.8311767578125,0.6453857421875,-0.1851806640625,-122,-54,60,-7.439024390243903,-3.2926829268292686,3.658536585365854,106.00978271869216,-51.06860783052301
2025-08-25T16:44:40.226790+03:00,1756129480.226778,0.070277,1,True,13516,10548,-2332,0.824951171875,0.643798828125,-0.142333984375,-9,-5,-43,-0.5487804878048781,-0.30487804878048785,-2.6219512195121952,102.46667565167758,-51.366283115151774
2025-08-25T16:44:40.226790+03:00,1756129480.226778,0.070277,2,True,13770,10456,-3444,0.8404541015625,0.63818359375,-0.210205078125,-112,-22,-59,-6.829268292682928,-1.3414634146341464,-3.5975609756097566,108.2308609608045,-51.35899398861015
2025-08-25T16:44:40.297011+03:00,1756129480.297000,0.070222,1,True,13110,10700,-2256,0.8001708984375,0.653076171875,-0.1376953125,-28,-15,-99,-1.707317073170732,-0.9146341463414634,-6.036585365853659,101.90592685974735,-50.16801945954864
2025-08-25T16:44:40.297011+03:00,1756129480.297000,0.070222,2,True,13402,10682,-3140,0.8179931640625,0.6519775390625,-0.191650390625,-109,-19,-82,-6.646341463414635,-1.1585365853658538,-5.0,106.38082639520327,-50.281301941970575
2025-08-25T16:44:40.367254+03:00,1756129480.367243,0.070243,1,True,13000,10814,-2246,0.79345703125,0.6600341796875,-0.1370849609375,2,7,-100,0.12195121951219513,0.426829268292683,-6.097560975609756,101.7331606766755,-49.648827887802824
2025-08-25T16:44:40.367254+03:00,1756129480.367243,0.070243,2,True,13318,10716,-3236,0.8128662109375,0.654052734375,-0.197509765625,-80,8,-70,-4.878048780487806,0.48780487804878053,-4.2682926829268295,106.8031776718767,-49.952535124885856
2025-08-25T16:44:40.437444+03:00,1756129480.437433,0.070190,1,True,12978,10892,-2216,0.7921142578125,0.664794921875,-0.13525390625,16,21,-87,0.9756097560975611,1.2804878048780488,-5.3048780487804885,101.4999860304844,-49.421263067601295
2025-08-25T16:44:40.437444+03:00,1756129480.437433,0.070190,2,True,13218,10852,-3128,0.8067626953125,0.662353515625,-0.19091796875,-66,20,-63,-4.024390243902439,1.2195121951219514,-3.8414634146341466,106.0791909711807,-49.48852728864364
2025-08-25T16:44:40.507688+03:00,1756129480.507676,0.070243,1,True,12876,11020,-2180,0.785888671875,0.672607421875,-0.133056640625,41,47,-96,2.5,2.8658536585365857,-5.853658536585367,101.18989797939341,-48.89720423562135
2025-08-25T16:44:40.507688+03:00,1756129480.507676,0.070243,2,True,13268,10976,-3082,0.809814453125,0.669921875,-0.1881103515625,-35,51,-81,-2.1341463414634148,3.1097560975609757,-4.939024390243903,105.6844460395717,-49.329262435416226
2025-08-25T16:44:40.577844+03:00,1756129480.577834,0.070158,1,True,12820,11168,-2152,0.782470703125,0.681640625,-0.13134765625,60,63,-130,3.658536585365854,3.8414634146341466,-7.926829268292684,100.90683574322762,-48.42170029327439
2025-08-25T16:44:40.577844+03:00,1756129480.577834,0.070158,2,True,13236,11074,-3152,0.807861328125,0.6759033203125,-0.1923828125,-30,58,-125,-1.829268292682927,3.536585365853659,-7.621951219512196,105.8879767828581,-48.98036960759785
2025-08-25T16:44:40.648024+03:00,1756129480.648013,0.070179,1,True,12804,11068,-2300,0.781494140625,0.675537109375,-0.140380859375,49,57,-171,2.987804878048781,3.4756097560975614,-10.426829268292684,101.7393429504058,-48.559218066963844
2025-08-25T16:44:40.648024+03:00,1756129480.648013,0.070179,2,True,13040,10998,-3314,0.7958984375,0.6712646484375,-0.2022705078125,-52,41,-144,-3.1707317073170733,2.5,-8.78048780487805,106.76899770398592,-48.624369021123485
2025-08-25T16:44:40.718222+03:00,1756129480.718211,0.070198,1,True,12616,11204,-2236,0.77001953125,0.683837890625,-0.136474609375,33,43,-157,2.0121951219512195,2.6219512195121952,-9.573170731707318,101.286326447805,-47.836277972534795
2025-08-25T16:44:40.718222+03:00,1756129480.718211,0.070198,2,True,12844,11118,-3214,0.783935546875,0.6785888671875,-0.1961669921875,-51,44,-123,-3.1097560975609757,2.682926829268293,-7.500000000000001,106.12356314941526,-47.97920500362519
2025-08-25T16:44:40.788325+03:00,1756129480.788312,0.070101,1,True,12584,11220,-2256,0.76806640625,0.684814453125,-0.1376953125,41,47,-128,2.5,2.8658536585365857,-7.8048780487804885,101.36884074889461,-47.71494678013416
2025-08-25T16:44:40.788325+03:00,1756129480.788312,0.070101,2,True,12896,11192,-3254,0.787109375,0.68310546875,-0.1986083984375,-56,31,-100,-3.414634146341464,1.8902439024390245,-6.097560975609756,106.21143831907897,-47.892627892897
2025-08-25T16:44:40.858537+03:00,1756129480.858526,0.070214,1,True,12472,11388,-2226,0.76123046875,0.695068359375,-0.1358642578125,35,42,-135,2.1341463414634148,2.5609756097560976,-8.231707317073171,101.06008775393214,-47.065949044836614
2025-08-25T16:44:40.858537+03:00,1756129480.858526,0.070214,2,True,12792,11306,-3232,0.78076171875,0.6900634765625,-0.197265625,-55,35,-112,-3.353658536585366,2.1341463414634148,-6.829268292682928,105.95342576802922,-47.409607507400196
2025-08-25T16:44:40.928796+03:00,1756129480.928782,0.070256,1,True,12292,11580,-2188,0.750244140625,0.706787109375,-0.133544921875,29,33,-129,1.7682926829268295,2.0121951219512195,-7.865853658536586,100.69969401103047,-46.20657911554953
2025-08-25T16:44:40.928796+03:00,1756129480.928782,0.070256,2,True,12544,11498,-3132,0.765625,0.7017822265625,-0.191162109375,-60,30,-106,-3.658536585365854,1.829268292682927,-6.463414634146342,105.23740633324165,-46.46846697811623
2025-08-25T16:44:40.998980+03:00,1756129480.998969,0.070187,1,True,12198,11622,-2262,0.7445068359375,0.7093505859375,-0.1380615234375,33,36,-125,2.0121951219512195,2.1951219512195124,-7.621951219512196,101.01383128056538,-45.85305024579283
2025-08-25T16:44:40.998980+03:00,1756129480.998969,0.070187,2,True,12544,11386,-3396,0.765625,0.6949462890625,-0.207275390625,-58,30,-95,-3.536585365853659,1.829268292682927,-5.7926829268292686,106.60778959176962,-46.55328663297873
2025-08-25T16:44:41.069118+03:00,1756129481.069107,0.070138,1,True,12332,11496,-2440,0.752685546875,0.70166015625,-0.14892578125,14,19,-107,0.853658536585366,1.1585365853658538,-6.52439024390244,101.98306791388207,-46.379332457093724
2025-08-25T16:44:41.069118+03:00,1756129481.069107,0.070138,2,True,12748,11454,-3344,0.778076171875,0.6990966796875,-0.2041015625,-96,-5,-90,-5.853658536585367,-0.30487804878048785,-5.487804878048781,106.27518461298243,-46.893307460154595
2025-08-25T16:44:41.139376+03:00,1756129481.139363,0.070256,1,True,12184,11714,-2300,0.74365234375,0.7149658203125,-0.140380859375,-14,-5,-121,-0.853658536585366,-0.30487804878048785,-7.378048780487806,101.10849754090293,-45.58509924876199
2025-08-25T16:44:41.139376+03:00,1756129481.139363,0.070256,2,True,12356,11702,-2832,0.754150390625,0.7142333984375,-0.1728515625,-83,8,-102,-5.060975609756098,0.48780487804878053,-6.219512195121951,103.60456945409409,-45.74255836572125
2025-08-25T16:44:41.209512+03:00,1756129481.209502,0.070139,1,True,11894,12000,-1976,0.7259521484375,0.732421875,-0.12060546875,53,56,-124,3.231707317073171,3.414634146341464,-7.560975609756098,99.3507901036414,-44.362648269000964
2025-08-25T16:44:41.209512+03:00,1756129481.209502,0.070139,2,True,12224,11924,-2972,0.74609375,0.727783203125,-0.181396484375,-14,79,-113,-0.853658536585366,4.817073170731708,-6.890243902439025,103.99553272963752,-44.84854158913285
2025-08-25T16:44:41.279708+03:00,1756129481.279696,0.070195,1,True,11860,12106,-2166,0.723876953125,0.7388916015625,-0.1322021484375,84,99,-181,5.121951219512195,6.036585365853659,-11.036585365853659,100.14399807657526,-43.96073721709229
2025-08-25T16:44:41.279708+03:00,1756129481.279696,0.070195,2,True,12322,11872,-3316,0.7520751953125,0.724609375,-0.202392578125,-17,81,-173,-1.0365853658536586,4.939024390243903,-10.548780487804878,105.60572008942887,-44.98976166677613
2025-08-25T16:44:41.349894+03:00,1756129481.349883,0.070187,1,True,11972,11902,-2248,0.730712890625,0.7264404296875,-0.13720703125,20,36,-201,1.2195121951219514,2.1951219512195124,-12.256097560975611,100.69578608814969,-44.66591199855165
2025-08-25T16:44:41.349894+03:00,1756129481.349883,0.070187,2,True,12132,11818,-3348,0.740478515625,0.7213134765625,-0.204345703125,-97,0,-162,-5.914634146341464,0.0,-9.878048780487806,105.81724748564866,-44.64544224770167
2025-08-25T16:44:41.419986+03:00,1756129481.419976,0.070092,1,True,11744,11958,-2302,0.716796875,0.7298583984375,-0.1405029296875,-44,-41,-151,-2.682926829268293,-2.5,-9.207317073170733,100.89654325060523,-43.96167070689918
2025-08-25T16:44:41.419986+03:00,1756129481.419976,0.070092,2,True,11802,12024,-3336,0.7203369140625,0.73388671875,-0.20361328125,-155,-75,-105,-9.451219512195122,-4.573170731707317,-6.402439024390245,105.5064126888856,-43.40473292279333
2025-08-25T16:44:41.490174+03:00,1756129481.490163,0.070187,1,True,11532,12200,-2222,0.703857421875,0.74462890625,-0.1356201171875,-101,-106,-92,-6.158536585365854,-6.463414634146342,-5.609756097560976,100.32220171678902,-42.92121873538533
2025-08-25T16:44:41.490174+03:00,1756129481.490163,0.070187,2,True,11856,12214,-3102,0.7236328125,0.7454833984375,-0.1893310546875,-194,-125,-78,-11.829268292682928,-7.621951219512196,-4.75609756097561,104.25017093340296,-43.25350559922913
2025-08-25T16:44:41.560504+03:00,1756129481.560491,0.070328,1,True,11200,12592,-1986,0.68359375,0.7685546875,-0.1212158203125,-89,-88,-104,-5.426829268292684,-5.365853658536586,-6.341463414634147,98.96281115593337,-41.3023155524035
2025-08-25T16:44:41.560504+03:00,1756129481.560491,0.070328,2,True,11610,12590,-2714,0.7086181640625,0.7684326171875,-0.1656494140625,-134,-54,-106,-8.170731707317074,-3.2926829268292686,-6.463414634146342,102.16497616062323,-42.03318063880526
2025-08-25T16:44:41.630701+03:00,1756129481.630690,0.070199,1,True,11236,12574,-1946,0.685791015625,0.7674560546875,-0.1187744140625,-13,-13,-146,-0.7926829268292683,-0.7926829268292683,-8.902439024390244,98.79751509028742,-41.44697797564803
2025-08-25T16:44:41.630701+03:00,1756129481.630690,0.070199,2,True,11628,12404,-3034,0.709716796875,0.757080078125,-0.1851806640625,-90,-2,-130,-5.487804878048781,-0.12195121951219513,-7.926829268292684,103.74459630101207,-42.32085098051707
2025-08-25T16:44:41.700948+03:00,1756129481.700938,0.070247,1,True,11302,12516,-2092,0.6898193359375,0.763916015625,-0.127685546875,-4,-2,-155,-0.24390243902439027,-0.12195121951219513,-9.451219512195122,99.48904301349249,-41.68980793585367
2025-08-25T16:44:41.700948+03:00,1756129481.700938,0.070247,2,True,11678,12464,-3186,0.7127685546875,0.7607421875,-0.1944580078125,-100,-10,-147,-6.097560975609756,-0.6097560975609757,-8.963414634146343,104.33869399868409,-42.231643862884354
2025-08-25T16:44:41.771152+03:00,1756129481.771141,0.070204,1,True,11142,12668,-2128,0.6800537109375,0.773193359375,-0.1298828125,-26,-18,-204,-1.5853658536585367,-1.0975609756097562,-12.439024390243903,99.53564885491652,-40.93791560822393
2025-08-25T16:44:41.771152+03:00,1756129481.771141,0.070204,2,True,11382,12676,-2970,0.6947021484375,0.773681640625,-0.1812744140625,-114,-21,-204,-6.951219512195123,-1.2804878048780488,-12.439024390243903,103.18659213565194,-41.161295391994706
2025-08-25T16:44:41.841307+03:00,1756129481.841295,0.070154,1,True,10766,12822,-2008,0.6571044921875,0.7825927734375,-0.12255859375,-9,2,-225,-0.5487804878048781,0.12195121951219513,-13.719512195121952,98.90055837821198,-39.67705759253432
2025-08-25T16:44:41.841307+03:00,1756129481.841295,0.070154,2,True,10870,12754,-2914,0.6634521484375,0.7784423828125,-0.1778564453125,-82,14,-182,-5.0,0.853658536585366,-11.097560975609756,102.86987662349144,-39.722207859381
2025-08-25T16:44:41.911485+03:00,1756129481.911474,0.070178,1,True,10556,12848,-2008,0.644287109375,0.7841796875,-0.12255859375,22,31,-134,1.3414634146341464,1.8902439024390245,-8.170731707317074,98.88283417657051,-39.06804281322818
2025-08-25T16:44:41.911485+03:00,1756129481.911474,0.070178,2,True,10780,12784,-3030,0.657958984375,0.7802734375,-0.1849365234375,-62,26,-66,-3.780487804878049,1.5853658536585367,-4.024390243902439,103.33391024639243,-39.36921671463282
2025-08-25T16:44:41.981797+03:00,1756129481.981785,0.070312,1,True,10578,13034,-2068,0.6456298828125,0.7955322265625,-0.126220703125,21,23,-67,1.2804878048780488,1.402439024390244,-4.085365853658537,99.01550940203254,-38.71369395484419
2025-08-25T16:44:41.981797+03:00,1756129481.981785,0.070312,2,True,11054,13004,-3102,0.6746826171875,0.793701171875,-0.1893310546875,-82,0,-64,-5.0,0.0,-3.9024390243902443,103.41671727688205,-39.5855366796313
2025-08-25T16:44:42.051900+03:00,1756129482.051888,0.070103,1,True,10578,13206,-1988,0.6456298828125,0.8060302734375,-0.121337890625,-8,-9,-123,-0.48780487804878053,-0.5487804878048781,-7.500000000000001,98.5608880004694,-38.38186354416687
2025-08-25T16:44:42.051900+03:00,1756129482.051888,0.070103,2,True,10852,13108,-2952,0.662353515625,0.800048828125,-0.18017578125,-96,-9,-128,-5.853658536585367,-0.5487804878048781,-7.8048780487804885,102.69161452710627,-38.92653531940966
2025-08-25T16:44:42.122304+03:00,1756129482.122290,0.070401,1,True,10350,13184,-1942,0.6317138671875,0.8046875,-0.1185302734375,10,17,-156,0.6097560975609757,1.0365853658536586,-9.51219512195122,98.37939635420749,-37.83512815687198
2025-08-25T16:44:42.122304+03:00,1756129482.122290,0.070401,2,True,10596,13154,-2878,0.646728515625,0.8028564453125,-0.1756591796875,-67,28,-130,-4.085365853658537,1.707317073170732,-7.926829268292684,102.34142385827455,-38.19989951411852
2025-08-25T16:44:42.192639+03:00,1756129482.192626,0.070336,1,True,10238,13286,-1932,0.6248779296875,0.8109130859375,-0.117919921875,32,46,-153,1.9512195121951221,2.804878048780488,-9.329268292682928,98.27374128517842,-37.327882092879314
2025-08-25T16:44:42.192639+03:00,1756129482.192626,0.070336,2,True,10520,13180,-3018,0.64208984375,0.804443359375,-0.1842041015625,-57,45,-129,-3.4756097560975614,2.7439024390243905,-7.865853658536586,102.89742515845975,-37.88441359360583
2025-08-25T16:44:42.262884+03:00,1756129482.262872,0.070246,1,True,10156,13362,-2046,0.619873046875,0.8155517578125,-0.1248779296875,27,42,-154,1.6463414634146343,2.5609756097560976,-9.390243902439025,98.70555693130014,-36.91787791428843
2025-08-25T16:44:42.262884+03:00,1756129482.262872,0.070246,2,True,10348,13256,-2990,0.631591796875,0.80908203125,-0.1824951171875,-63,37,-124,-3.8414634146341466,2.25609756097561,-7.560975609756098,102.71082168114144,-37.28915533021705
2025-08-25T16:44:42.333105+03:00,1756129482.333093,0.070221,1,True,10078,13340,-1980,0.6151123046875,0.814208984375,-0.120849609375,29,38,-116,1.7682926829268295,2.3170731707317076,-7.073170731707318,98.4425327278967,-36.770234901649964
2025-08-25T16:44:42.333105+03:00,1756129482.333093,0.070221,2,True,10456,13232,-3046,0.63818359375,0.8076171875,-0.1859130859375,-66,23,-71,-4.024390243902439,1.402439024390244,-4.329268292682928,102.96361950180645,-37.598621203735526
2025-08-25T16:44:42.403269+03:00,1756129482.403259,0.070165,1,True,10130,13380,-2028,0.6182861328125,0.816650390625,-0.123779296875,4,3,-88,0.24390243902439027,0.1829268292682927,-5.365853658536586,98.61869102165822,-36.81671263873462
2025-08-25T16:44:42.403269+03:00,1756129482.403259,0.070165,2,True,10350,13368,-3028,0.6317138671875,0.81591796875,-0.184814453125,-93,-16,-66,-5.670731707317073,-0.9756097560975611,-4.024390243902439,102.76276132848751,-37.056745594426154
2025-08-25T16:44:42.473376+03:00,1756129482.473366,0.070107,1,True,9868,13574,-1962,0.602294921875,0.8284912109375,-0.1197509765625,-10,-17,-99,-0.6097560975609757,-1.0365853658536586,-6.036585365853659,98.22462869565108,-35.735050948082076
2025-08-25T16:44:42.473376+03:00,1756129482.473366,0.070107,2,True,10266,13516,-2922,0.6265869140625,0.824951171875,-0.1783447265625,-98,-21,-96,-5.975609756097562,-1.2804878048780488,-5.853658536585367,102.19893473968573,-36.58995569128378
2025-08-25T16:44:42.543845+03:00,1756129482.543833,0.070466,1,True,9772,13610,-1914,0.596435546875,0.8306884765625,-0.1168212890625,-9,-12,-138,-0.5487804878048781,-0.7317073170731708,-8.414634146341465,98.00511431316899,-35.41301678085803
2025-08-25T16:44:42.543845+03:00,1756129482.543833,0.070466,2,True,10088,13554,-2902,0.61572265625,0.8272705078125,-0.1771240234375,-95,-10,-126,-5.7926829268292686,-0.6097560975609757,-7.682926829268293,102.08493968449673,-36.04666158822721
2025-08-25T16:44:42.614158+03:00,1756129482.614145,0.070312,1,True,9624,13690,-1894,0.58740234375,0.8355712890625,-0.1156005859375,-5,-2,-158,-0.30487804878048785,-0.12195121951219513,-9.634146341463415,97.87681996754444,-34.851891011511086
2025-08-25T16:44:42.614158+03:00,1756129482.614145,0.070312,2,True,9764,13602,-2852,0.595947265625,0.8302001953125,-0.174072265625,-92,-2,-127,-5.609756097560976,-0.12195121951219513,-7.743902439024391,101.84194433382694,-35.09027391168719
2025-08-25T16:44:42.684338+03:00,1756129482.684327,0.070182,1,True,9338,13870,-1868,0.5699462890625,0.8465576171875,-0.114013671875,15,24,-123,0.9146341463414634,1.4634146341463417,-7.500000000000001,97.67039190376718,-33.71231020286374
2025-08-25T16:44:42.684338+03:00,1756129482.684327,0.070182,2,True,9300,13754,-2874,0.567626953125,0.8394775390625,-0.1754150390625,-62,37,-76,-3.780487804878049,2.25609756097561,-4.634146341463415,101.8025517339413,-33.49944313106109
2025-08-25T16:44:42.754637+03:00,1756129482.754626,0.070298,1,True,9418,13802,-1944,0.5748291015625,0.8424072265625,-0.11865234375,30,39,-65,1.829268292682927,2.378048780487805,-3.963414634146342,98.01732083646337,-34.04671286429867
2025-08-25T16:44:42.754637+03:00,1756129482.754626,0.070298,2,True,9704,13690,-3022,0.59228515625,0.8355712890625,-0.1844482421875,-66,20,-21,-4.024390243902439,1.2195121951219514,-1.2804878048780488,102.44812907634044,-34.690008214395164
2025-08-25T16:44:42.824853+03:00,1756129482.824840,0.070215,1,True,9568,13784,-2016,0.583984375,0.84130859375,-0.123046875,4,-7,-41,0.24390243902439027,-0.426829268292683,-2.5,98.32088437195102,-34.48248628212875
2025-08-25T16:44:42.824853+03:00,1756129482.824840,0.070215,2,True,9832,13572,-3004,0.60009765625,0.828369140625,-0.183349609375,-96,-31,-15,-5.853658536585367,-1.8902439024390245,-0.9146341463414634,102.48052162015244,-35.27230231097919
2025-08-25T16:44:42.894938+03:00,1756129482.894927,0.070086,1,True,9550,13792,-1950,0.5828857421875,0.841796875,-0.1190185546875,-10,-31,-37,-0.6097560975609757,-1.8902439024390245,-2.25609756097561,98.0474968253715,-34.43498617507486
2025-08-25T16:44:42.894938+03:00,1756129482.894927,0.070086,2,True,9766,13752,-2942,0.5960693359375,0.83935546875,-0.1795654296875,-105,-47,-21,-6.402439024390245,-2.8658536585365857,-1.2804878048780488,102.07540588258813,-34.7775746932556
2025-08-25T16:44:42.965572+03:00,1756129482.965558,0.070631,1,True,9324,13972,-1858,0.569091796875,0.852783203125,-0.1134033203125,-19,-41,-62,-1.1585365853658538,-2.5,-3.780487804878049,97.5747638622487,-33.4850858602455
2025-08-25T16:44:42.965572+03:00,1756129482.965558,0.070631,2,True,9706,13844,-2864,0.5924072265625,0.844970703125,-0.1748046875,-103,-38,-58,-6.2804878048780495,-2.3170731707317076,-3.536585365853659,101.68827271365907,-34.47194157442713
2025-08-25T16:44:43.035763+03:00,1756129483.035751,0.070193,1,True,9272,13992,-1876,0.56591796875,0.85400390625,-0.114501953125,-17,-31,-109,-1.0365853658536586,-1.8902439024390245,-6.646341463414635,97.63648076941027,-33.296399878271146
2025-08-25T16:44:43.035763+03:00,1756129483.035751,0.070193,2,True,9608,13858,-2894,0.58642578125,0.8458251953125,-0.1766357421875,-109,-39,-113,-6.646341463414635,-2.378048780487805,-6.890243902439025,101.79569191953857,-34.16383453515043
2025-08-25T16:44:43.106063+03:00,1756129483.106049,0.070298,1,True,9060,14084,-1884,0.552978515625,0.859619140625,-0.114990234375,-24,-37,-147,-1.4634146341463417,-2.25609756097561,-8.963414634146343,97.61915588266957,-32.521737835304876
2025-08-25T16:44:43.106063+03:00,1756129483.106049,0.070298,2,True,9362,14032,-2822,0.5714111328125,0.8564453125,-0.1722412109375,-113,-43,-139,-6.890243902439025,-2.6219512195121952,-8.475609756097562,101.37116608229938,-33.18840556531699
2025-08-25T16:44:43.176393+03:00,1756129483.176381,0.070332,1,True,8820,14140,-1858,0.538330078125,0.863037109375,-0.1134033203125,-15,-23,-164,-0.9146341463414634,-1.402439024390244,-10.0,97.48579334531642,-31.734559594097117
2025-08-25T16:44:43.176393+03:00,1756129483.176381,0.070332,2,True,9234,14028,-2934,0.5635986328125,0.856201171875,-0.1790771484375,-102,-22,-146,-6.219512195121951,-1.3414634146341464,-8.902439024390244,101.81329653666515,-32.79420972472717
2025-08-25T16:44:43.246617+03:00,1756129483.246604,0.070223,1,True,8926,14118,-1976,0.5447998046875,0.8616943359375,-0.12060546875,-21,-38,-166,-1.2804878048780488,-2.3170731707317076,-10.121951219512196,97.96753904840278,-32.05230092720116
2025-08-25T16:44:43.246617+03:00,1756129483.246604,0.070223,2,True,9224,14042,-2844,0.56298828125,0.8570556640625,-0.173583984375,-115,-51,-143,-7.01219512195122,-3.1097560975609757,-8.719512195121952,101.44953482929733,-32.77401697267739
2025-08-25T16:44:43.316782+03:00,1756129483.316771,0.070167,1,True,8690,14200,-1770,0.5303955078125,0.86669921875,-0.1080322265625,-23,-41,-143,-1.402439024390244,-2.5,-8.719512195121952,97.10514974906371,-31.269153621606197
2025-08-25T16:44:43.316782+03:00,1756129483.316771,0.070167,2,True,9052,14088,-2740,0.552490234375,0.85986328125,-0.167236328125,-103,-30,-110,-6.2804878048780495,-1.829268292682927,-6.707317073170732,101.00615176974316,-32.240217688736315
2025-08-25T16:44:43.387046+03:00,1756129483.387034,0.070264,1,True,8668,14234,-1820,0.529052734375,0.8687744140625,-0.111083984375,-9,-22,-110,-0.5487804878048781,-1.3414634146341464,-6.707317073170732,97.28646394525946,-31.133936836012452
2025-08-25T16:44:43.387046+03:00,1756129483.387034,0.070264,2,True,8800,14212,-2744,0.537109375,0.867431640625,-0.16748046875,-91,-19,-71,-5.548780487804878,-1.1585365853658538,-4.329268292682928,100.9279853619132,-31.298208032274346
2025-08-25T16:44:43.457247+03:00,1756129483.457235,0.070200,1,True,8416,14360,-1812,0.513671875,0.87646484375,-0.110595703125,11,7,-73,0.6707317073170732,0.426829268292683,-4.451219512195122,97.19179077854722,-30.176355731133416
2025-08-25T16:44:43.457247+03:00,1756129483.457235,0.070200,2,True,8680,14270,-2820,0.52978515625,0.8709716796875,-0.172119140625,-76,3,-38,-4.634146341463415,0.1829268292682927,-2.3170731707317076,101.17860734184674,-30.82574280551646
2025-08-25T16:44:43.527343+03:00,1756129483.527333,0.070098,1,True,8462,14368,-1842,0.5164794921875,0.876953125,-0.1124267578125,9,-2,-46,0.5487804878048781,-0.12195121951219513,-2.804878048780488,97.3055567901976,-30.29204736076771
2025-08-25T16:44:43.527343+03:00,1756129483.527333,0.070098,2,True,8696,14326,-2822,0.53076171875,0.8743896484375,-0.1722412109375,-89,-19,-26,-5.426829268292684,-1.1585365853658538,-1.5853658536585367,101.1437049225982,-30.77647998691813
2025-08-25T16:44:43.597480+03:00,1756129483.597470,0.070137,1,True,8330,14518,-1760,0.5084228515625,0.8861083984375,-0.107421875,4,-7,-61,0.24390243902439027,-0.426829268292683,-3.7195121951219514,96.91216845503624,-29.665847846089363
2025-08-25T16:44:43.597480+03:00,1756129483.597470,0.070137,2,True,8776,14458,-2764,0.53564453125,0.8824462890625,-0.168701171875,-82,-255,-69,-5.0,-15.54878048780488,-4.207317073170732,100.82289717293482,-30.803499973958495
2025-08-25T16:44:43.667594+03:00,1756129483.667583,0.070113,1,True,8332,14530,-1820,0.508544921875,0.8868408203125,-0.111083984375,10,17,-131,0.6097560975609757,1.0365853658536586,-7.987804878048781,97.13957412110437,-29.63935858691125
2025-08-25T16:44:43.667594+03:00,1756129483.667583,0.070113,2,True,8786,14358,-2838,0.5362548828125,0.8763427734375,-0.1732177734375,-81,12,-140,-4.939024390243903,0.7317073170731708,-8.536585365853659,101.18094878114462,-30.97677890513943
2025-08-25T16:44:43.737825+03:00,1756129483.737814,0.070231,1,True,8298,14484,-1838,0.5064697265625,0.884033203125,-0.1121826171875,2,8,-180,0.12195121951219513,0.48780487804878053,-10.975609756097562,97.23210049147096,-29.611741364615792
2025-08-25T16:44:43.737825+03:00,1756129483.737814,0.070231,2,True,8496,14440,-2720,0.5185546875,0.88134765625,-0.166015625,-89,-1,-162,-5.426829268292684,-0.06097560975609757,-9.878048780487806,100.66755983088514,-30.036387741277395
2025-08-25T16:44:43.807976+03:00,1756129483.807964,0.070150,1,True,8010,14530,-1750,0.4888916015625,0.8868408203125,-0.1068115234375,11,21,-148,0.6707317073170732,1.2804878048780488,-9.02439024390244,96.86764927501468,-28.69267433600479
2025-08-25T16:44:43.807976+03:00,1756129483.807964,0.070150,2,True,8236,14424,-2802,0.502685546875,0.88037109375,-0.1710205078125,-71,22,-85,-4.329268292682928,1.3414634146341464,-5.182926829268293,100.9933321179038,-29.27127152225067
2025-08-25T16:44:43.878240+03:00,1756129483.878228,0.070264,1,True,7960,14622,-1798,0.48583984375,0.8924560546875,-0.1097412109375,17,16,-75,1.0365853658536586,0.9756097560975611,-4.573170731707317,97.01020535579192,-28.383043272740927
2025-08-25T16:44:43.878240+03:00,1756129483.878228,0.070264,2,True,8316,14504,-2840,0.507568359375,0.88525390625,-0.17333984375,-75,1,-49,-4.573170731707317,0.06097560975609757,-2.987804878048781,101.07880264540688,-29.365319187201433
2025-08-25T16:44:43.948428+03:00,1756129483.948417,0.070188,1,True,7914,14674,-1772,0.4830322265625,0.8956298828125,-0.108154296875,-2,-19,-82,-0.12195121951219513,-1.1585365853658538,-5.0,96.88557057604451,-28.16599556168747
2025-08-25T16:44:43.948428+03:00,1756129483.948417,0.070188,2,True,8256,14580,-2788,0.50390625,0.889892578125,-0.170166015625,-107,-55,-79,-6.52439024390244,-3.353658536585366,-4.817073170731708,100.82546272202751,-29.08184853240313
2025-08-25T16:44:44.018656+03:00,1756129484.018645,0.070228,1,True,7706,14786,-1714,0.4703369140625,0.9024658203125,-0.1046142578125,-34,-75,-119,-2.073170731707317,-4.573170731707317,-7.25609756097561,96.61223981986747,-27.370690607664173
2025-08-25T16:44:44.018656+03:00,1756129484.018645,0.070228,2,True,8006,14662,-2742,0.4886474609375,0.8948974609375,-0.1673583984375,-119,-74,-105,-7.25609756097561,-4.51219512195122,-6.402439024390245,100.59275402649406,-28.223884272893024
2025-08-25T16:44:44.088801+03:00,1756129484.088786,0.070141,1,True,7598,14756,-1766,0.4637451171875,0.900634765625,-0.1077880859375,-5,-22,-97,-0.30487804878048785,-1.3414634146341464,-5.914634146341464,96.82470415743447,-27.078876266515195
2025-08-25T16:44:44.088801+03:00,1756129484.088786,0.070141,2,True,7910,14688,-2720,0.4827880859375,0.896484375,-0.166015625,-82,-8,-55,-5.0,-0.48780487804878053,-3.353658536585366,100.49147541087,-27.902634847472036
2025-08-25T16:44:44.159120+03:00,1756129484.159089,0.070303,1,True,7502,14830,-1738,0.4578857421875,0.9051513671875,-0.1060791015625,15,12,-59,0.9146341463414634,0.7317073170731708,-3.5975609756097566,96.6842794132383,-26.6762303141187
2025-08-25T16:44:44.159120+03:00,1756129484.159089,0.070303,2,True,7812,14768,-2652,0.476806640625,0.9013671875,-0.161865234375,-71,11,-34,-4.329268292682928,0.6707317073170732,-2.073170731707317,100.18052068529916,-27.503881393661725
2025-08-25T16:44:44.229885+03:00,1756129484.229870,0.070781,1,True,7412,14946,-1562,0.452392578125,0.9122314453125,-0.0953369140625,7,-3,-88,0.426829268292683,-0.1829268292682927,-5.365853658536586,95.96629673061918,-26.25400566036309
2025-08-25T16:44:44.229885+03:00,1756129484.229870,0.070781,2,True,7818,14910,-2610,0.4771728515625,0.9100341796875,-0.1593017578125,-88,-9,-96,-5.365853658536586,-0.5487804878048781,-5.853658536585367,99.92904033074103,-27.316011536839632
2025-08-25T16:44:44.300220+03:00,1756129484.300208,0.070338,1,True,7288,14960,-1710,0.44482421875,0.9130859375,-0.1043701171875,16,28,-142,0.9756097560975611,1.707317073170732,-8.658536585365855,96.52088036918242,-25.827634946405638
2025-08-25T16:44:44.300220+03:00,1756129484.300208,0.070338,2,True,7744,14794,-2716,0.47265625,0.9029541015625,-0.165771484375,-66,42,-126,-4.024390243902439,2.5609756097560976,-7.682926829268293,100.40296915285833,-27.241716916626
2025-08-25T16:44:44.370480+03:00,1756129484.370468,0.070260,1,True,7308,14952,-1726,0.446044921875,0.91259765625,-0.1053466796875,22,46,-156,1.3414634146341464,2.804878048780488,-9.51219512195122,96.58485204799004,-25.898414584063953
2025-08-25T16:44:44.370480+03:00,1756129484.370468,0.070260,2,True,7618,14842,-2798,0.4649658203125,0.9058837890625,-0.1707763671875,-71,35,-134,-4.329268292682928,2.1341463414634148,-8.170731707317074,100.67604851351354,-26.765853747046464
2025-08-25T16:44:44.441659+03:00,1756129484.441644,0.071175,1,True,7246,14924,-1748,0.4422607421875,0.910888671875,-0.106689453125,12,23,-145,0.7317073170731708,1.402439024390244,-8.841463414634147,96.68043042794538,-25.74476618446196
2025-08-25T16:44:44.441659+03:00,1756129484.441644,0.071175,2,True,7554,14818,-2742,0.4610595703125,0.9044189453125,-0.1673583984375,-81,1,-104,-4.939024390243903,0.06097560975609757,-6.341463414634147,100.48372143649128,-26.62347931710339
2025-08-25T16:44:44.512010+03:00,1756129484.511998,0.070354,1,True,7094,14958,-1774,0.4329833984375,0.9129638671875,-0.1082763671875,4,-9,-87,0.24390243902439027,-0.5487804878048781,-5.3048780487804885,96.76361240359293,-25.218589643716292
2025-08-25T16:44:44.512010+03:00,1756129484.511998,0.070354,2,True,7394,14882,-2804,0.4512939453125,0.9083251953125,-0.171142578125,-92,-35,-53,-5.609756097560976,-2.1341463414634148,-3.231707317073171,100.67032004379134,-26.02398254590778
2025-08-25T16:44:44.582424+03:00,1756129484.582412,0.070414,1,True,6898,15136,-1638,0.4210205078125,0.923828125,-0.0999755859375,-16,-56,-78,-0.9756097560975611,-3.414634146341464,-4.75609756097561,96.17644330930077,-24.374769290330836
2025-08-25T16:44:44.582424+03:00,1756129484.582412,0.070414,2,True,7188,15046,-2670,0.438720703125,0.9183349609375,-0.1629638671875,-112,-76,-75,-6.829268292682928,-4.634146341463415,-4.573170731707317,100.0627127402523,-25.191635785556155
2025-08-25T16:44:44.652666+03:00,1756129484.652655,0.070243,1,True,6714,15208,-1598,0.4097900390625,0.92822265625,-0.0975341796875,-30,-86,-124,-1.829268292682927,-5.2439024390243905,-7.560975609756098,95.99841400066553,-23.704403297132696
2025-08-25T16:44:44.652666+03:00,1756129484.652655,0.070243,2,True,6954,15078,-2626,0.4244384765625,0.9202880859375,-0.1602783203125,-116,-75,-106,-7.073170731707318,-4.573170731707317,-6.463414634146342,99.87959618407643,-24.435259227262456
2025-08-25T16:44:44.722920+03:00,1756129484.722909,0.070254,1,True,6780,15180,-1648,0.413818359375,0.926513671875,-0.1005859375,-4,-23,-98,-0.24390243902439027,-1.402439024390244,-5.975609756097562,96.19598555839538,-23.942717654857134
2025-08-25T16:44:44.722920+03:00,1756129484.722909,0.070254,2,True,7050,15024,-2620,0.4302978515625,0.9169921875,-0.159912109375,-81,-6,-55,-4.939024390243903,-0.3658536585365854,-3.353658536585366,99.89219766190789,-24.809813655512723
2025-08-25T16:44:44.793092+03:00,1756129484.793082,0.070173,1,True,6724,15150,-1656,0.410400390625,0.9246826171875,-0.10107421875,16,9,-58,0.9756097560975611,0.5487804878048781,-3.536585365853659,96.2380588061197,-23.807094463967882
2025-08-25T16:44:44.793092+03:00,1756129484.793082,0.070173,2,True,7148,15034,-2730,0.436279296875,0.9176025390625,-0.1666259765625,-79,-7,-31,-4.817073170731708,-0.426829268292683,-1.8902439024390245,100.29210010313103,-25.070446429754284
2025-08-25T16:44:44.863273+03:00,1756129484.863262,0.070180,1,True,6728,15192,-1662,0.41064453125,0.92724609375,-0.1014404296875,6,-9,-45,0.3658536585365854,-0.5487804878048781,-2.7439024390243905,96.24331038247296,-23.760920236253828
2025-08-25T16:44:44.863273+03:00,1756129484.863262,0.070180,2,True,6956,15100,-2652,0.424560546875,0.921630859375,-0.161865234375,-83,-19,-16,-5.060975609756098,-1.1585365853658538,-0.9756097560975611,99.96121605065949,-24.40464102318632
2025-08-25T16:44:44.933466+03:00,1756129484.933456,0.070194,1,True,6610,15204,-1628,0.4034423828125,0.927978515625,-0.099365234375,9,-11,-26,0.5487804878048781,-0.6707317073170732,-1.5853658536585367,96.1117763106836,-23.37800266665393
2025-08-25T16:44:44.933466+03:00,1756129484.933456,0.070194,2,True,6960,15090,-2660,0.4248046875,0.9210205078125,-0.162353515625,-81,-22,2,-4.939024390243903,-1.3414634146341464,0.12195121951219513,99.99714765724869,-24.42894618363301
2025-08-25T16:44:45.003691+03:00,1756129485.003679,0.070223,1,True,6646,15222,-1658,0.4056396484375,0.9290771484375,-0.1011962890625,10,-13,-16,0.6097560975609757,-0.7926829268292683,-0.9756097560975611,96.21622365482402,-23.462666857554154
2025-08-25T16:44:45.003691+03:00,1756129485.003679,0.070223,2,True,7016,15098,-2662,0.42822265625,0.9215087890625,-0.1624755859375,-82,-25,0,-5.0,-1.524390243902439,0.0,99.99931841623594,-24.590654642264802
2025-08-25T16:44:45.073870+03:00,1756129485.073860,0.070181,1,True,6594,15238,-1624,0.4024658203125,0.9300537109375,-0.09912109375,13,-4,-30,0.7926829268292683,-0.24390243902439027,-1.829268292682927,96.08337128077017,-23.28206997608124
2025-08-25T16:44:45.073870+03:00,1756129485.073860,0.070181,2,True,7008,15110,-2646,0.427734375,0.9222412109375,-0.1614990234375,-75,-2,-17,-4.573170731707317,-0.12195121951219513,-1.0365853658536586,99.93268244821188,-24.55314672633951
2025-08-25T16:44:45.144347+03:00,1756129485.144333,0.070473,1,True,6726,15200,-1718,0.4105224609375,0.927734375,-0.1048583984375,9,-8,-50,0.5487804878048781,-0.48780487804878053,-3.048780487804878,96.44856223511816,-23.735108026385838
2025-08-25T16:44:45.144347+03:00,1756129485.144333,0.070473,2,True,7326,15066,-2752,0.4471435546875,0.9195556640625,-0.16796875,-93,-42,-52,-5.670731707317073,-2.5609756097560976,-3.1707317073170733,100.351690675433,-25.563922567635405
2025-08-25T16:44:45.214707+03:00,1756129485.214694,0.070362,1,True,6510,15290,-1624,0.3973388671875,0.9332275390625,-0.09912109375,-12,-55,-86,-0.7317073170731708,-3.353658536585366,-5.2439024390243905,96.06283659626034,-22.947167608375302
2025-08-25T16:44:45.214707+03:00,1756129485.214694,0.070362,2,True,6610,15216,-2322,0.4034423828125,0.9287109375,-0.1417236328125,-88,-25,-60,-5.365853658536586,-1.524390243902439,-3.658536585365854,98.67654045992106,-23.240602219295504
2025-08-25T16:44:45.284992+03:00,1756129485.284981,0.070287,1,True,6370,15302,-1592,0.3887939453125,0.9339599609375,-0.09716796875,11,7,-75,0.6707317073170732,0.426829268292683,-4.573170731707317,95.93960748811836,-22.492031070917793
2025-08-25T16:44:45.284992+03:00,1756129485.284981,0.070287,2,True,6642,15190,-2636,0.4053955078125,0.9271240234375,-0.160888671875,-76,7,-44,-4.634146341463415,0.426829268292683,-2.682926829268293,99.84479188049747,-23.307463378964204
2025-08-25T16:44:45.355208+03:00,1756129485.355197,0.070216,1,True,6364,15318,-1652,0.388427734375,0.9349365234375,-0.100830078125,17,16,-55,1.0365853658536586,0.9756097560975611,-3.353658536585366,96.1553843061288,-22.44374353576599
2025-08-25T16:44:45.355208+03:00,1756129485.355197,0.070216,2,True,6706,15200,-2634,0.4093017578125,0.927734375,-0.1607666015625,-73,9,-28,-4.451219512195122,0.5487804878048781,-1.707317073170732,99.83112268113243,-23.49485194504515
2025-08-25T16:44:45.425387+03:00,1756129485.425376,0.070179,1,True,6396,15328,-1624,0.390380859375,0.935546875,-0.09912109375,17,17,-53,1.0365853658536586,1.0365853658536586,-3.231707317073171,96.04791760988371,-22.5361558397245
2025-08-25T16:44:45.425387+03:00,1756129485.425376,0.070179,2,True,6688,15202,-2636,0.408203125,0.9278564453125,-0.160888671875,-73,9,-32,-4.451219512195122,0.5487804878048781,-1.9512195121951221,99.83717257642088,-23.435465822870984
2025-08-25T16:44:45.495620+03:00,1756129485.495609,0.070233,1,True,6396,15318,-1636,0.390380859375,0.9349365234375,-0.099853515625,16,18,-66,0.9756097560975611,1.0975609756097562,-4.024390243902439,96.09621906553308,-22.547575964234397
2025-08-25T16:44:45.495620+03:00,1756129485.495609,0.070233,2,True,7036,15170,-2656,0.429443359375,0.9259033203125,-0.162109375,-76,9,-70,-4.634146341463415,0.5487804878048781,-4.2682926829268295,99.93082470340504,-24.553799294629815
2025-08-25T16:44:45.565953+03:00,1756129485.565940,0.070331,1,True,6292,15364,-1590,0.384033203125,0.937744140625,-0.0970458984375,12,14,-110,0.7317073170731708,0.853658536585366,-6.707317073170732,95.90842975742252,-22.163682707714152
2025-08-25T16:44:45.565953+03:00,1756129485.565940,0.070331,2,True,6488,15264,-2618,0.39599609375,0.931640625,-0.1597900390625,-77,11,-85,-4.695121951219512,0.6707317073170732,-5.182926829268293,99.732369425782,-22.730520750047756
2025-08-25T16:44:45.636282+03:00,1756129485.636270,0.070330,1,True,6010,15430,-1580,0.3668212890625,0.9417724609375,-0.096435546875,13,20,-91,0.7926829268292683,1.2195121951219514,-5.548780487804878,95.84658980486974,-21.180097156950893
2025-08-25T16:44:45.636282+03:00,1756129485.636270,0.070330,2,True,6480,15292,-2604,0.3955078125,0.933349609375,-0.158935546875,-74,24,-60,-4.51219512195122,1.4634146341463417,-3.658536585365854,99.66392009723822,-22.672131992236885
2025-08-25T16:44:45.706530+03:00,1756129485.706519,0.070249,1,True,5238,15654,-1360,0.3197021484375,0.9554443359375,-0.0830078125,45,159,-228,2.7439024390243905,9.695121951219512,-13.902439024390246,94.96531680601973,-18.436079096378258
2025-08-25T16:44:45.706530+03:00,1756129485.706519,0.070249,2,True,5300,15400,-2480,0.323486328125,0.93994140625,-0.1513671875,-29,172,-71,-1.7682926829268295,10.487804878048781,-4.329268292682928,99.14830811694327,-18.76664167271378
2025-08-25T16:44:45.776790+03:00,1756129485.776779,0.070260,1,True,5808,15552,-1434,0.3544921875,0.94921875,-0.0875244140625,73,195,-94,4.451219512195122,11.890243902439025,-5.731707317073171,95.26816196123882,-20.399123547003896
2025-08-25T16:44:45.776790+03:00,1756129485.776779,0.070260,2,True,6354,15304,-2690,0.3878173828125,0.93408203125,-0.1641845703125,-14,213,-89,-0.853658536585366,12.987804878048781,-5.426829268292684,99.9691029174389,-22.240476598250844
2025-08-25T16:44:45.846938+03:00,1756129485.846927,0.070148,1,True,6492,15328,-1750,0.396240234375,0.935546875,-0.1068115234375,49,112,-60,2.987804878048781,6.829268292682928,-3.658536585365854,96.51326393201093,-22.821598297342234
2025-08-25T16:44:45.846938+03:00,1756129485.846927,0.070148,2,True,6680,15258,-2684,0.40771484375,0.9312744140625,-0.163818359375,-61,49,-28,-3.7195121951219514,2.987804878048781,-1.707317073170732,99.9766992464132,-23.324873424161883
2025-08-25T16:44:45.917148+03:00,1756129485.917137,0.070210,1,True,6060,15468,-1574,0.369873046875,0.944091796875,-0.0960693359375,17,22,-92,1.0365853658536586,1.3414634146341464,-5.609756097560976,95.8103294495805,-21.29403611203572
2025-08-25T16:44:45.917148+03:00,1756129485.917137,0.070210,2,True,6160,15406,-2574,0.3759765625,0.9403076171875,-0.1571044921875,-75,12,-82,-4.573170731707317,0.7317073170731708,-5.0,99.48523652098308,-21.52316433451039
2025-08-25T16:44:45.987285+03:00,1756129485.987275,0.070138,1,True,5458,15594,-1530,0.3331298828125,0.9517822265625,-0.0933837890625,15,18,-69,0.9146341463414634,1.0975609756097562,-4.207317073170732,95.60361924075444,-19.204954569769797
2025-08-25T16:44:45.987285+03:00,1756129485.987275,0.070138,2,True,5846,15442,-2524,0.3568115234375,0.9425048828125,-0.154052734375,-73,9,-19,-4.451219512195122,0.5487804878048781,-1.1585365853658538,99.28292575211377,-20.4866925353167
2025-08-25T16:44:46.057390+03:00,1756129486.057379,0.070104,1,True,5656,15562,-1552,0.34521484375,0.9498291015625,-0.0947265625,18,13,-33,1.0975609756097562,0.7926829268292683,-2.0121951219512195,95.69528085303436,-19.882794613741567
2025-08-25T16:44:46.057390+03:00,1756129486.057379,0.070104,2,True,5952,15456,-2560,0.36328125,0.943359375,-0.15625,-71,6,-9,-4.329268292682928,0.3658536585365854,-0.5487804878048781,99.4046015908445,-20.802642309420165
2025-08-25T16:44:46.127773+03:00,1756129486.127761,0.070382,1,True,5536,15584,-1530,0.337890625,0.951171875,-0.0933837890625,20,16,-14,1.2195121951219514,0.9756097560975611,-0.853658536585366,95.60719208590442,-19.470354210171525
2025-08-25T16:44:46.127773+03:00,1756129486.127761,0.070382,2,True,6106,15412,-2560,0.3726806640625,0.940673828125,-0.15625,-70,10,9,-4.2682926829268295,0.6097560975609757,0.5487804878048781,99.4309692866798,-21.347041526619968
2025-08-25T16:44:46.198077+03:00,1756129486.198065,0.070304,1,True,5740,15546,-1544,0.350341796875,0.9488525390625,-0.09423828125,18,16,-42,1.0975609756097562,0.9756097560975611,-2.5609756097560976,95.67190882956714,-20.174297406875482
2025-08-25T16:44:46.198077+03:00,1756129486.198065,0.070304,2,True,6032,15444,-2570,0.3681640625,0.942626953125,-0.1568603515625,-73,7,-28,-4.451219512195122,0.426829268292683,-1.707317073170732,99.44788146617964,-21.07039650911884
2025-08-25T16:44:46.268205+03:00,1756129486.268194,0.070130,1,True,5560,15574,-1520,0.33935546875,0.9505615234375,-0.0927734375,18,16,-46,1.0975609756097562,0.9756097560975611,-2.804878048780488,95.57432949346442,-19.560990064880535
2025-08-25T16:44:46.268205+03:00,1756129486.268194,0.070130,2,True,5862,15456,-2562,0.3577880859375,0.943359375,-0.1563720703125,-72,8,-16,-4.390243902439025,0.48780487804878053,-0.9756097560975611,99.41181752577548,-20.514070709854767
2025-08-25T16:44:46.338462+03:00,1756129486.338450,0.070256,1,True,5468,15592,-1562,0.333740234375,0.95166015625,-0.0953369140625,20,15,-15,1.2195121951219514,0.9146341463414634,-0.9146341463414634,95.72077869255357,-19.236230548407654
2025-08-25T16:44:46.338462+03:00,1756129486.338450,0.070256,2,True,6146,15402,-2658,0.3751220703125,0.9400634765625,-0.1622314453125,-77,-16,18,-4.695121951219512,-0.9756097560975611,1.0975609756097562,99.79137449037614,-21.466066095469404
2025-08-25T16:44:46.408824+03:00,1756129486.408810,0.070361,1,True,5716,15470,-1650,0.348876953125,0.9442138671875,-0.1007080078125,-8,-78,-2,-0.48780487804878053,-4.75609756097561,-0.12195121951219513,96.08803835515472,-20.173607025305863
2025-08-25T16:44:46.408824+03:00,1756129486.408810,0.070361,2,True,6254,15354,-2726,0.3817138671875,0.9371337890625,-0.1663818359375,-114,-142,7,-6.951219512195123,-8.658536585365855,0.426829268292683,100.06757349224534,-21.853191423808997
2025-08-25T16:44:46.479013+03:00,1756129486.479002,0.070192,1,True,5602,15574,-1534,0.3419189453125,0.9505615234375,-0.0936279296875,-40,-173,-24,-2.439024390243903,-10.548780487804878,-1.4634146341463417,95.62534419498601,-19.695832846856113
2025-08-25T16:44:46.479013+03:00,1756129486.479002,0.070192,2,True,5882,15448,-2520,0.3590087890625,0.94287109375,-0.15380859375,-128,-182,-11,-7.8048780487804885,-11.097560975609756,-0.6707317073170732,99.2649323674383,-20.59591953019153
